Wavenumbers [1/cm],Absorbance
3997.712,0.000134058
3995.783,0.000116036
3993.855,0.000112619
3991.926,0.000122665
3989.998,0.000119377
3988.069,0.000112101
3986.141,0.000121319
3984.212,0.000133644
3982.284,0.000142836
3980.355,0.000153531
3978.427,0.000159073
3976.499,0.000153479
3974.57,0.000138046
3972.642,0.000124037
3970.713,0.000116943
3968.785,0.000116477
3966.856,0.000126912
3964.928,0.000132013
3962.999,0.000114819
3961.071,9.63E-05
3959.142,9.73E-05
3957.214,0.000101796
3955.285,0.000100139
3953.357,0.000104799
3951.428,0.000109667
3949.5,0.000102935
3947.572,9.20E-05
3945.643,8.19E-05
3943.715,7.48E-05
3941.786,7.88E-05
3939.858,9.55E-05
3937.929,0.000110599
3936.001,0.000111272
3934.072,0.000110159
3932.144,0.000117305
3930.215,0.000117901
3928.287,0.00011034
3926.358,0.000102909
3924.43,9.78E-05
3922.501,9.66E-05
3920.573,9.48E-05
3918.645,9.61E-05
3916.716,0.000102546
3914.788,9.83E-05
3912.859,8.83E-05
3910.931,9.44E-05
3909.002,0.000110418
3907.074,0.000110262
3905.145,9.31E-05
3903.217,7.86E-05
3901.288,7.16E-05
3899.36,7.06E-05
3897.431,7.75E-05
3895.503,8.26E-05
3893.574,7.74E-05
3891.646,6.96E-05
3889.718,6.13E-05
3887.789,4.38E-05
3885.861,3.54E-05
3883.932,5.70E-05
3882.004,7.75E-05
3880.075,6.89E-05
3878.147,5.18E-05
3876.218,4.59E-05
3874.29,4.77E-05
3872.361,4.80E-05
3870.433,4.13E-05
3868.504,3.37E-05
3866.576,3.81E-05
3864.647,5.22E-05
3862.719,5.04E-05
3860.791,3.07E-05
3858.862,2.02E-05
3856.934,2.17E-05
3855.005,2.20E-05
3853.077,2.56E-05
3851.148,3.66E-05
3849.22,4.66E-05
3847.291,5.40E-05
3845.363,6.23E-05
3843.434,6.98E-05
3841.506,6.64E-05
3839.577,4.47E-05
3837.649,2.76E-05
3835.72,3.74E-05
3833.792,5.48E-05
3831.864,5.75E-05
3829.935,5.57E-05
3828.007,5.94E-05
3826.078,5.52E-05
3824.15,4.13E-05
3822.221,3.04E-05
3820.293,2.54E-05
3818.364,2.59E-05
3816.436,2.78E-05
3814.507,3.19E-05
3812.579,3.50E-05
3810.65,2.75E-05
3808.722,1.77E-05
3806.793,1.69E-05
3804.865,2.30E-05
3802.937,2.81E-05
3801.008,2.76E-05
3799.08,2.51E-05
3797.151,2.02E-05
3795.223,1.25E-05
3793.294,8.41E-06
3791.366,1.40E-05
3789.437,1.91E-05
3787.509,1.58E-05
3785.58,1.63E-05
3783.652,1.69E-05
3781.723,8.13E-06
3779.795,-1.14E-06
3777.866,-1.08E-05
3775.938,-1.78E-05
3774.01,-1.48E-05
3772.081,-6.37E-06
3770.153,7.02E-06
3768.224,2.27E-05
3766.296,2.85E-05
3764.367,1.64E-05
3762.439,-4.81E-06
3760.51,-1.76E-05
3758.582,-1.68E-05
3756.653,-1.42E-05
3754.725,-2.14E-05
3752.796,-3.60E-05
3750.868,-5.64E-05
3748.939,-8.98E-05
3747.011,-0.000133085
3745.083,-0.000170193
3743.154,-0.000206107
3741.226,-0.000266906
3739.297,-0.000355321
3737.369,-0.000460371
3735.44,-0.000579718
3733.512,-0.00070084
3731.583,-0.000797952
3729.655,-0.000849678
3727.726,-0.000866419
3725.798,-0.00086151
3723.869,-0.000830456
3721.941,-0.000769684
3720.012,-0.000659694
3718.084,-0.000495537
3716.156,-0.000342802
3714.227,-0.000298725
3712.299,-0.000387237
3710.37,-0.000529408
3708.442,-0.000651785
3706.513,-0.000747719
3704.585,-0.000826219
3702.656,-0.000875306
3700.728,-0.000889359
3698.799,-0.000891632
3696.871,-0.000887137
3694.942,-0.000861872
3693.014,-0.00083893
3691.085,-0.000841772
3689.157,-0.00083769
3687.229,-0.000800329
3685.3,-0.000762552
3683.372,-0.00076648
3681.443,-0.000805859
3679.515,-0.000844201
3677.586,-0.000871276
3675.658,-0.000875667
3673.729,-0.000854328
3671.801,-0.00085531
3669.872,-0.000887396
3667.944,-0.000924077
3666.015,-0.000978525
3664.087,-0.001044329
3662.158,-0.001085284
3660.23,-0.001105528
3658.302,-0.001135271
3656.373,-0.001172293
3654.445,-0.001199709
3652.516,-0.00123337
3650.588,-0.001293303
3648.659,-0.001363859
3646.731,-0.001419336
3644.802,-0.001456385
3642.874,-0.00148466
3640.945,-0.001529133
3639.017,-0.001624358
3637.088,-0.001754265
3635.16,-0.00184444
3633.231,-0.001871813
3631.303,-0.001907381
3629.375,-0.00198701
3627.446,-0.002062246
3625.518,-0.002086772
3623.589,-0.002058897
3621.661,-0.00200984
3619.732,-0.001962221
3617.804,-0.001907793
3615.875,-0.001823509
3613.947,-0.001726265
3612.018,-0.001687021
3610.09,-0.001742869
3608.161,-0.001861915
3606.233,-0.001973869
3604.304,-0.002018755
3602.376,-0.00201118
3600.448,-0.002004223
3598.519,-0.002003914
3596.591,-0.001982578
3594.662,-0.00194078
3592.734,-0.001897432
3590.805,-0.00186274
3588.877,-0.001831448
3586.948,-0.001791492
3585.02,-0.001758029
3583.091,-0.001737145
3581.163,-0.001713373
3579.234,-0.001684752
3577.306,-0.0016421
3575.377,-0.001598774
3573.449,-0.001592223
3571.521,-0.001616775
3569.592,-0.001632816
3567.664,-0.001612649
3565.735,-0.001565863
3563.807,-0.001532177
3561.878,-0.001536201
3559.95,-0.001583196
3558.021,-0.0016519
3556.093,-0.001699295
3554.164,-0.001716003
3552.236,-0.001707237
3550.307,-0.001687176
3548.379,-0.0017011
3546.45,-0.001747304
3544.522,-0.001784067
3542.594,-0.001797421
3540.665,-0.00179871
3538.737,-0.001805412
3536.808,-0.001800154
3534.88,-0.001774941
3532.951,-0.00180268
3531.023,-0.001901917
3529.094,-0.001972838
3527.166,-0.001977115
3525.237,-0.001979538
3523.309,-0.002003141
3521.38,-0.00199639
3519.452,-0.001969694
3517.523,-0.00199943
3515.595,-0.002063225
3513.667,-0.002100528
3511.738,-0.002150863
3509.81,-0.002253213
3507.881,-0.002340195
3505.953,-0.002367331
3504.024,-0.002395341
3502.096,-0.002439515
3500.167,-0.002452694
3498.239,-0.002442346
3496.31,-0.002444354
3494.382,-0.002477198
3492.453,-0.002543908
3490.525,-0.002614878
3488.596,-0.002644262
3486.668,-0.002649974
3484.74,-0.002705492
3482.811,-0.002824532
3480.883,-0.002946676
3478.954,-0.003023905
3477.026,-0.003042978
3475.097,-0.00300992
3473.169,-0.002977477
3471.24,-0.003008429
3469.312,-0.003092381
3467.383,-0.003157763
3465.455,-0.003165935
3463.526,-0.003154165
3461.598,-0.003182638
3459.669,-0.003278066
3457.741,-0.003404603
3455.813,-0.003529049
3453.884,-0.003662957
3451.956,-0.003777321
3450.027,-0.003859175
3448.099,-0.003948913
3446.17,-0.004036941
3444.242,-0.004090744
3442.313,-0.00411572
3440.385,-0.004161668
3438.456,-0.004247294
3436.528,-0.004313117
3434.599,-0.004356891
3432.671,-0.004448884
3430.742,-0.004569701
3428.814,-0.004642288
3426.885,-0.004688488
3424.957,-0.004766637
3423.029,-0.004841852
3421.1,-0.004880352
3419.172,-0.004966195
3417.243,-0.005174819
3415.315,-0.005393007
3413.386,-0.005450068
3411.458,-0.005416425
3409.529,-0.00547563
3407.601,-0.005587065
3405.672,-0.005653298
3403.744,-0.005686718
3401.815,-0.005730099
3399.887,-0.00584111
3397.958,-0.005966647
3396.03,-0.006006732
3394.102,-0.005994988
3392.173,-0.005971907
3390.245,-0.0059644
3388.316,-0.006058658
3386.388,-0.006213377
3384.459,-0.0063036
3382.531,-0.006382326
3380.602,-0.006462313
3378.674,-0.006411762
3376.745,-0.006345592
3374.817,-0.006478227
3372.888,-0.006614237
3370.96,-0.006508217
3369.031,-0.006375949
3367.103,-0.006405997
3365.175,-0.006462415
3363.246,-0.006495109
3361.318,-0.006541265
3359.389,-0.006571608
3357.461,-0.006555136
3355.532,-0.006485673
3353.604,-0.006402018
3351.675,-0.006364419
3349.747,-0.006363551
3347.818,-0.006326459
3345.89,-0.006221134
3343.961,-0.006113334
3342.033,-0.006082244
3340.104,-0.006202098
3338.176,-0.006484806
3336.248,-0.006651661
3334.319,-0.006476441
3332.391,-0.006241497
3330.462,-0.006131507
3328.534,-0.006016076
3326.605,-0.005993047
3324.677,-0.006118796
3322.748,-0.006132578
3320.82,-0.005941829
3318.891,-0.005772504
3316.963,-0.005731734
3315.034,-0.005681404
3313.106,-0.005596776
3311.177,-0.005545408
3309.249,-0.005439229
3307.321,-0.005244338
3305.392,-0.005104061
3303.464,-0.005116187
3301.535,-0.005192161
3299.607,-0.005108563
3297.678,-0.004855727
3295.75,-0.004676042
3293.821,-0.004557867
3291.893,-0.004362888
3289.964,-0.004283641
3288.036,-0.004469125
3286.107,-0.004631276
3284.179,-0.0045509
3282.25,-0.004492184
3280.322,-0.00462518
3278.394,-0.004757675
3276.465,-0.004805347
3274.537,-0.004827773
3272.608,-0.004864737
3270.68,-0.004970647
3268.751,-0.005123759
3266.823,-0.00517973
3264.894,-0.005120229
3262.966,-0.005120741
3261.037,-0.005129131
3259.109,-0.004995727
3257.18,-0.004895453
3255.252,-0.00504501
3253.323,-0.005348673
3251.395,-0.005535849
3249.467,-0.005462645
3247.538,-0.005230732
3245.61,-0.005140234
3243.681,-0.005285001
3241.753,-0.005408654
3239.824,-0.005470824
3237.896,-0.005558084
3235.967,-0.005542648
3234.039,-0.005423277
3232.11,-0.005317579
3230.182,-0.005250834
3228.253,-0.00531717
3226.325,-0.005523121
3224.396,-0.005624425
3222.468,-0.005576791
3220.54,-0.005568358
3218.611,-0.005589671
3216.683,-0.0055795
3214.754,-0.005537638
3212.826,-0.005432071
3210.897,-0.005387587
3208.969,-0.005453391
3207.04,-0.005423328
3205.112,-0.005301316
3203.183,-0.005206332
3201.255,-0.005092701
3199.326,-0.00490733
3197.398,-0.004668667
3195.469,-0.004553461
3193.541,-0.004594342
3191.613,-0.004495821
3189.684,-0.004250933
3187.756,-0.004160642
3185.827,-0.004293176
3183.899,-0.004462874
3181.97,-0.004485061
3180.042,-0.00437442
3178.113,-0.004257188
3176.185,-0.004174795
3174.256,-0.004113514
3172.328,-0.004034171
3170.399,-0.003946092
3168.471,-0.003909716
3166.542,-0.003890372
3164.614,-0.00386877
3162.686,-0.003841112
3160.757,-0.003701202
3158.829,-0.003464802
3156.9,-0.003272157
3154.972,-0.003218304
3153.043,-0.003328264
3151.115,-0.003452116
3149.186,-0.003419911
3147.258,-0.003320917
3145.329,-0.003278889
3143.401,-0.003208848
3141.472,-0.003040665
3139.544,-0.002877817
3137.615,-0.0028055
3135.687,-0.002758791
3133.759,-0.002661242
3131.83,-0.002535415
3129.902,-0.002417532
3127.973,-0.002313829
3126.045,-0.002234259
3124.116,-0.002162917
3122.188,-0.002062349
3120.259,-0.001946656
3118.331,-0.001855162
3116.402,-0.001780252
3114.474,-0.001729823
3112.545,-0.001705999
3110.617,-0.001645968
3108.688,-0.001537129
3106.76,-0.00139663
3104.832,-0.001217779
3102.903,-0.001070617
3100.975,-0.000994125
3099.046,-0.000891632
3097.118,-0.000753508
3095.189,-0.000668999
3093.261,-0.000603707
3091.332,-0.000481109
3089.404,-0.000328783
3087.475,-0.000197879
3085.547,-9.61E-05
3083.618,-1.73E-05
3081.69,5.32E-05
3079.761,0.000141153
3077.833,0.000254042
3075.905,0.000392868
3073.976,0.000549078
3072.048,0.000681594
3070.119,0.000756088
3068.191,0.00078119
3066.262,0.000808109
3064.334,0.000868332
3062.405,0.000923324
3060.477,0.000942547
3058.548,0.000954273
3056.62,0.000984938
3054.691,0.001017033
3052.763,0.001028969
3050.834,0.001028865
3048.906,0.001025258
3046.978,0.00103408
3045.049,0.001086783
3043.121,0.001155481
3041.192,0.001188626
3039.264,0.001197893
3037.335,0.001202799
3035.407,0.001204564
3033.478,0.001216479
3031.55,0.001230471
3029.621,0.001227018
3027.693,0.001217725
3025.764,0.00122058
3023.836,0.001227927
3021.907,0.001214973
3019.979,0.001163734
3018.051,0.001107363
3016.122,0.001098357
3014.194,0.001124206
3012.265,0.001143853
3010.337,0.001162514
3008.408,0.001195271
3006.48,0.001232703
3004.551,0.001267205
3002.623,0.001303968
3000.694,0.001359638
2998.766,0.001442481
2996.837,0.001529366
2994.909,0.001602291
2992.98,0.001662754
2991.052,0.001717223
2989.124,0.001787735
2987.195,0.001896789
2985.267,0.002037728
2983.338,0.002178738
2981.41,0.002297753
2979.481,0.002407402
2977.553,0.002522001
2975.624,0.002630171
2973.696,0.002722765
2971.767,0.002809985
2969.839,0.002907125
2967.91,0.003021073
2965.982,0.003132653
2964.053,0.00320822
2962.125,0.003236698
2960.197,0.003234586
2958.268,0.00322804
2956.34,0.003222537
2954.411,0.003193356
2952.483,0.003142379
2950.554,0.003105146
2948.626,0.00308833
2946.697,0.003090599
2944.769,0.003130463
2942.84,0.003195729
2940.912,0.003244548
2938.983,0.003257927
2937.055,0.003252842
2935.126,0.003248956
2933.198,0.003229578
2931.27,0.003175285
2929.341,0.003107232
2927.413,0.003049695
2925.484,0.002996493
2923.556,0.002933837
2921.627,0.002869809
2919.699,0.002818192
2917.77,0.00276903
2915.842,0.002720081
2913.913,0.002690439
2911.985,0.002667284
2910.056,0.002617514
2908.128,0.002550825
2906.199,0.002499063
2904.271,0.002468264
2902.343,0.002460116
2900.414,0.002474174
2898.486,0.002482479
2896.557,0.002465427
2894.629,0.002441633
2892.7,0.002435255
2890.772,0.002449625
2888.843,0.00247696
2886.915,0.002504427
2884.986,0.002518069
2883.058,0.00251734
2881.129,0.00251557
2879.201,0.002523563
2877.272,0.002528094
2875.344,0.002511717
2873.416,0.002483989
2871.487,0.002449521
2869.559,0.002390666
2867.63,0.002306392
2865.702,0.002216854
2863.773,0.002138597
2861.845,0.002066675
2859.916,0.001993699
2857.988,0.001933761
2856.059,0.001886727
2854.131,0.001840088
2852.202,0.001804579
2850.274,0.001779054
2848.345,0.001748748
2846.417,0.001721537
2844.489,0.001705034
2842.56,0.001692041
2840.632,0.001677306
2838.703,0.00166382
2836.775,0.001657219
2834.846,0.001650178
2832.918,0.001626688
2830.989,0.001592158
2829.061,0.001569243
2827.132,0.001563086
2825.204,0.001564853
2823.275,0.001565814
2821.347,0.001552409
2819.418,0.00152534
2817.49,0.001510793
2815.562,0.001518638
2813.633,0.001520352
2811.705,0.001500065
2809.776,0.001474558
2807.848,0.001454584
2805.919,0.001437468
2803.991,0.001421159
2802.062,0.001408017
2800.134,0.001398928
2798.205,0.001390696
2796.277,0.001381269
2794.348,0.001368623
2792.42,0.001350394
2790.491,0.001327051
2788.563,0.001304046
2786.635,0.001287455
2784.706,0.001278057
2782.778,0.001272293
2780.849,0.001265362
2778.921,0.001257236
2776.992,0.001247968
2775.064,0.00123722
2773.135,0.001226577
2771.207,0.00121801
2769.278,0.00120472
2767.35,0.001177465
2765.421,0.001147383
2763.493,0.001132848
2761.564,0.001130201
2759.636,0.001123453
2757.708,0.001105312
2755.779,0.001081308
2753.851,0.001063298
2751.922,0.001057278
2749.994,0.001060003
2748.065,0.001064362
2746.137,0.001060703
2744.208,0.001041813
2742.28,0.001013738
2740.351,0.000993033
2738.423,0.000983797
2736.494,0.000975261
2734.566,0.000962419
2732.637,0.000952742
2730.709,0.000950329
2728.781,0.000948876
2726.852,0.000944025
2724.924,0.000935387
2722.995,0.000927812
2721.067,0.000927682
2719.138,0.000923272
2717.21,0.000904958
2715.281,0.000888564
2713.353,0.000880601
2711.424,0.000872612
2709.496,0.000865894
2707.567,0.000864675
2705.639,0.000866568
2703.71,0.000863274
2701.782,0.000852744
2699.854,0.000845689
2697.925,0.000843485
2695.997,0.000829842
2694.068,0.000800017
2692.14,0.000774655
2690.211,0.000772373
2688.283,0.000785287
2686.354,0.000794701
2684.426,0.000795998
2682.497,0.000794027
2680.569,0.000788944
2678.64,0.000775122
2676.712,0.000751109
2674.783,0.00072702
2672.855,0.000716
2670.927,0.000717271
2668.998,0.000719656
2667.07,0.000721549
2665.141,0.000726087
2663.213,0.000719708
2661.284,0.000694117
2659.356,0.000676305
2657.427,0.000684524
2655.499,0.000693651
2653.57,0.000688724
2651.642,0.000685121
2649.713,0.000690176
2647.785,0.000691421
2645.856,0.000671405
2643.928,0.000636562
2642,0.000617923
2640.071,0.000627437
2638.143,0.000643614
2636.214,0.000640969
2634.286,0.000620282
2632.357,0.000593738
2630.429,0.000567921
2628.5,0.00055859
2626.572,0.000571006
2624.643,0.00058438
2622.715,0.000584769
2620.786,0.000567817
2618.858,0.00054151
2616.929,0.000521942
2615.001,0.000494756
2613.073,0.000463917
2611.144,0.000463425
2609.216,0.00048255
2607.287,0.000502012
2605.359,0.000523756
2603.43,0.000538788
2601.502,0.000540162
2599.573,0.000528058
2597.645,0.000503645
2595.716,0.0004776
2593.788,0.000470266
2591.859,0.000466534
2589.931,0.000440077
2588.002,0.000416057
2586.074,0.00041116
2584.146,0.000419814
2582.217,0.000428728
2580.289,0.000416809
2578.36,0.000412171
2576.432,0.000434947
2574.503,0.000436139
2572.575,0.000394474
2570.646,0.000364835
2568.718,0.000365716
2566.789,0.000341726
2564.861,0.000291859
2562.932,0.00025544
2561.004,0.000240521
2559.075,0.000263107
2557.147,0.000288362
2555.219,0.000266682
2553.29,0.000232881
2551.362,0.000219154
2549.433,0.000230187
2547.505,0.000264661
2545.576,0.000293154
2543.648,0.000291289
2541.719,0.000273649
2539.791,0.000279736
2537.862,0.000285668
2535.934,0.00025285
2534.005,0.000233321
2532.077,0.000258212
2530.148,0.000271629
2528.22,0.000222961
2526.292,0.000149362
2524.363,0.000153272
2522.435,0.000243863
2520.506,0.000305381
2518.578,0.000281368
2516.649,0.000230783
2514.721,0.000206386
2512.792,0.000207344
2510.864,0.000193204
2508.935,0.000166971
2507.007,0.000198513
2505.078,0.000278208
2503.15,0.000320069
2501.221,0.000313178
2499.293,0.000317426
2497.365,0.000324187
2495.436,0.00026562
2493.508,0.000171891
2491.579,0.000134447
2489.651,0.000158995
2487.722,0.000167981
2485.794,0.000133851
2483.865,0.000118755
2481.937,0.000130873
2480.008,0.000131495
2478.08,0.000142189
2476.151,0.000166634
2474.223,0.000166841
2472.294,0.000129812
2470.366,7.00E-05
2468.438,4.45E-05
2466.509,7.12E-05
2464.581,8.66E-05
2462.652,7.85E-05
2460.724,7.67E-05
2458.795,8.78E-05
2456.867,9.41E-05
2454.938,6.79E-05
2453.01,2.86E-05
2451.081,6.94E-06
2449.153,1.66E-06
2447.224,9.45E-06
2445.296,2.98E-05
2443.367,6.16E-05
2441.439,8.13E-05
2439.51,5.52E-05
2437.582,-1.92E-06
2435.654,-2.81E-05
2433.725,1.32E-05
2431.797,8.54E-05
2429.868,0.000125125
2427.94,0.000129423
2426.011,0.000107026
2424.083,3.85E-05
2422.154,-3.88E-05
2420.226,-6.66E-05
2418.297,-3.60E-05
2416.369,1.93E-05
2414.44,4.65E-05
2412.512,4.51E-05
2410.583,4.55E-05
2408.655,3.42E-05
2406.727,-1.24E-05
2404.798,-7.86E-05
2402.87,-0.000122009
2400.941,-0.000117403
2399.013,-9.22E-05
2397.084,-7.25E-05
2395.156,-5.01E-05
2393.227,-4.30E-05
2391.299,-5.90E-05
2389.37,-8.53E-05
2387.442,-0.000187012
2385.513,-0.000496882
2383.585,-0.001122878
2381.656,-0.00214329
2379.728,-0.003606842
2377.8,-0.005453544
2375.871,-0.007519782
2373.943,-0.009625002
2372.014,-0.01164311
2370.086,-0.01352428
2368.157,-0.01522721
2366.229,-0.01664003
2364.3,-0.01764932
2362.372,-0.01829185
2360.443,-0.01858187
2358.515,-0.01837002
2356.586,-0.01751901
2354.658,-0.01590812
2352.729,-0.01340718
2350.801,-0.01065768
2348.873,-0.009332829
2346.944,-0.01032607
2345.016,-0.01244649
2343.087,-0.01379198
2341.159,-0.01408503
2339.23,-0.01392923
2337.302,-0.01360397
2335.373,-0.0132642
2333.445,-0.01302717
2331.516,-0.01281293
2329.588,-0.01238219
2327.659,-0.01174209
2325.731,-0.01115872
2323.802,-0.01068678
2321.874,-0.01010498
2319.946,-0.009265735
2318.017,-0.008228414
2316.089,-0.007174504
2314.16,-0.00630161
2312.232,-0.00561635
2310.303,-0.004986872
2308.375,-0.004335056
2306.446,-0.003660904
2304.518,-0.003041642
2302.589,-0.002572009
2300.661,-0.002219322
2298.732,-0.001902845
2296.804,-0.001619354
2294.875,-0.001340634
2292.947,-0.001072631
2291.019,-0.000888636
2289.09,-0.000758728
2287.162,-0.000615701
2285.233,-0.00048354
2283.305,-0.000424633
2281.376,-0.000475782
2279.448,-0.000602311
2277.519,-0.000663261
2275.591,-0.000621285
2273.662,-0.000582406
2271.734,-0.000536233
2269.805,-0.000488556
2267.877,-0.000518807
2265.948,-0.000589851
2264.02,-0.000604896
2262.092,-0.000485867
2260.163,-0.000364425
2258.235,-0.000456027
2256.306,-0.000568084
2254.378,-0.000426909
2252.449,-0.000188047
2250.521,-4.47E-05
2248.592,2.39E-05
2246.664,3.54E-05
2244.735,-5.79E-05
2242.807,-0.000278806
2240.878,-0.000541404
2238.95,-0.000692467
2237.021,-0.000718259
2235.093,-0.000810148
2233.165,-0.000924491
2231.236,-0.000712625
2229.308,-0.000206624
2227.379,9.58E-06
2225.451,-0.000358062
2223.522,-0.000850349
2221.594,-0.000980385
2219.665,-0.000723376
2217.737,-0.000305864
2215.808,-6.41E-05
2213.88,-0.000381599
2211.951,-0.001080998
2210.023,-0.00126486
2208.094,-0.00085376
2206.166,-0.000683111
2204.238,-0.000791958
2202.309,-0.000816452
2200.381,-0.000950269
2198.452,-0.001398023
2196.524,-0.001878617
2194.595,-0.001847687
2192.667,-0.00134884
2190.738,-0.001151588
2188.81,-0.001312711
2186.881,-0.000981676
2184.953,0.000279814
2183.024,0.001822853
2181.096,0.002042331
2179.167,0.000555713
2177.239,-0.000890599
2175.311,-0.001183136
2173.382,-0.000954092
2171.454,-0.00135653
2169.525,-0.00243241
2167.597,-0.003019586
2165.668,-0.002982567
2163.74,-0.003386316
2161.811,-0.003643141
2159.883,-0.002427365
2157.954,-0.001662215
2156.026,-0.002922199
2154.097,-0.003501523
2152.169,-0.002412846
2150.24,-0.001024961
2148.312,5.44E-05
2146.384,0.000466405
2144.455,-0.000155857
2142.527,-0.000648735
2140.598,-0.000312331
2138.67,-3.73E-05
2136.741,-2.35E-05
2134.813,7.37E-05
2132.884,1.44E-05
2130.956,-0.000275909
2129.027,-0.000554382
2127.099,-0.000730302
2125.17,-0.000823635
2123.242,-0.000814333
2121.313,-0.000795627
2119.385,-0.000900622
2117.457,-0.00095466
2115.528,-0.000726477
2113.6,-0.000364839
2111.671,-0.000213093
2109.743,-0.00036308
2107.814,-0.000546626
2105.886,-0.000539543
2103.957,-0.000487884
2102.029,-0.000631469
2100.1,-0.000878302
2098.172,-0.000913848
2096.243,-0.000674789
2094.315,-0.000402858
2092.386,-0.000181423
2090.458,6.83E-05
2088.53,0.000125772
2086.601,-0.000187167
2084.673,-0.000528839
2082.744,-0.000661659
2080.816,-0.000641188
2078.887,-0.000352062
2076.959,4.64E-05
2075.03,4.33E-05
2073.102,-0.000279789
2071.173,-0.000336594
2069.245,-0.000154978
2067.316,-0.000269493
2065.388,-0.000581217
2063.459,-0.000467301
2061.531,4.56E-05
2059.603,0.00025039
2057.674,-9.41E-05
2055.746,-0.000591144
2053.817,-0.000990819
2051.889,-0.001229137
2049.96,-0.001030539
2048.032,-0.000651527
2046.103,-0.000792164
2044.175,-0.000737331
2042.246,-0.000380047
2040.318,-0.001018453
2038.389,-0.001608419
2036.461,-0.000577598
2034.532,0.000420462
2032.604,-0.000250763
2030.676,-0.001152982
2028.747,-0.001221393
2026.819,-0.000842599
2024.89,-0.00019555
2022.962,0.000426111
2021.033,0.000964831
2019.105,0.001118237
2017.176,0.000743952
2015.248,0.00058661
2013.319,0.000615201
2011.391,0.0002075
2009.462,-0.000702753
2007.534,-0.001228466
2005.605,-0.000653491
2003.677,0.000265853
2001.749,0.00080842
1999.82,0.000839075
1997.892,0.000472236
1995.963,0.000340404
1994.035,0.000565459
1992.106,0.000389655
1990.178,-0.000147577
1988.249,-0.00028667
1986.321,-0.0002311
1984.392,-0.000547919
1982.464,-0.001070669
1980.535,-0.001496785
1978.607,-0.001788553
1976.678,-0.001618787
1974.75,-0.000811026
1972.822,-3.60E-05
1970.893,0.000124814
1968.965,-0.000308658
1967.036,-0.000731801
1965.108,-0.000815522
1963.179,-0.000790356
1961.251,-0.000599416
1959.322,-0.000346889
1957.394,-0.000275339
1955.465,-0.000328369
1953.537,-0.000524237
1951.608,-0.000742964
1949.68,-0.000771751
1947.751,-0.000726942
1945.823,-0.000737538
1943.895,-0.000590058
1941.966,-0.000181889
1940.038,0.000107026
1938.109,1.36E-05
1936.181,-9.63E-05
1934.252,5.91E-05
1932.324,0.000144261
1930.395,-2.89E-05
1928.467,-0.00011761
1926.538,-1.79E-05
1924.61,-1.19E-05
1922.681,-0.000116264
1920.753,-0.000231204
1918.824,-0.0003577
1916.896,-0.000345906
1914.968,-0.000219147
1913.039,-0.000153684
1911.111,-8.31E-05
1909.182,1.87E-05
1907.254,5.46E-05
1905.325,-6.51E-05
1903.397,-0.000323661
1901.468,-0.00046637
1899.54,-0.000405496
1897.611,-0.000357856
1895.683,-0.000371357
1893.754,-0.00034963
1891.826,-0.000306899
1889.897,-0.000278547
1887.969,-0.000278858
1886.041,-0.000329869
1884.112,-0.000366649
1882.184,-0.000324541
1880.255,-0.00026851
1878.327,-0.00022458
1876.398,-0.000206987
1874.47,-0.000271356
1872.541,-0.000292413
1870.613,-0.000182147
1868.684,-8.21E-05
1866.756,-8.19E-05
1864.827,-0.00014737
1862.899,-0.000231049
1860.97,-0.000308244
1859.042,-0.000341354
1857.114,-0.000286101
1855.185,-0.00021154
1853.257,-0.00022308
1851.328,-0.000277771
1849.4,-0.000287757
1847.471,-0.00027208
1845.543,-0.000266388
1843.614,-0.000287084
1841.686,-0.000339026
1839.757,-0.000339388
1837.829,-0.000245019
1835.9,-0.00017247
1833.972,-0.000195343
1832.043,-0.00023229
1830.115,-0.000229651
1828.187,-0.000217646
1826.258,-0.000219354
1824.33,-0.000247089
1822.401,-0.000286877
1820.473,-0.000301467
1818.544,-0.000283255
1816.616,-0.00026375
1814.687,-0.000261214
1812.759,-0.000251435
1810.83,-0.000240776
1808.902,-0.000262042
1806.973,-0.000297949
1805.045,-0.000318074
1803.116,-0.000320867
1801.188,-0.000318488
1799.26,-0.000307003
1797.331,-0.000281031
1795.403,-0.000269234
1793.474,-0.000280306
1791.546,-0.000288222
1789.617,-0.000288119
1787.689,-0.000287498
1785.76,-0.000286825
1783.832,-0.000298259
1781.903,-0.000331576
1779.975,-0.000359666
1778.046,-0.000352579
1776.118,-0.000331162
1774.189,-0.000335456
1772.261,-0.000355838
1770.333,-0.000352062
1768.404,-0.000325265
1766.476,-0.000304002
1764.547,-0.000297587
1762.619,-0.000305088
1760.69,-0.000318436
1758.762,-0.000324851
1756.833,-0.000327282
1754.905,-0.000336491
1752.976,-0.000353407
1751.048,-0.000378909
1749.119,-0.000395358
1747.191,-0.000378392
1745.262,-0.000350769
1743.334,-0.00034425
1741.406,-0.000349527
1739.477,-0.000351027
1737.549,-0.000356304
1735.62,-0.000367632
1733.692,-0.000367425
1731.763,-0.000352993
1729.835,-0.000343526
1727.906,-0.000349113
1725.978,-0.000358528
1724.049,-0.000354338
1722.121,-0.000342647
1720.192,-0.000346785
1718.264,-0.000362149
1716.335,-0.000355942
1714.407,-0.000324334
1712.479,-0.000295
1710.55,-0.000270786
1708.622,-0.000235964
1706.693,-0.000180026
1704.765,-8.14E-05
1702.836,7.76E-05
1700.908,0.000299967
1698.979,0.00058845
1697.051,0.000948176
1695.122,0.00139376
1693.194,0.001925129
1691.265,0.002524865
1689.337,0.003202301
1687.408,0.003961403
1685.48,0.004764963
1683.552,0.00557683
1681.623,0.006391163
1679.695,0.007212474
1677.766,0.008031465
1675.838,0.008841595
1673.909,0.00965345
1671.981,0.01047581
1670.052,0.01130349
1668.124,0.01213362
1666.195,0.01298363
1664.267,0.01385148
1662.338,0.01468359
1660.41,0.015415
1658.481,0.01600469
1656.553,0.0164235
1654.625,0.01663625
1652.696,0.01664341
1650.768,0.01650884
1648.839,0.01627572
1646.911,0.01593508
1644.982,0.01552619
1643.054,0.01512739
1641.125,0.01474488
1639.197,0.01435094
1637.268,0.01395342
1635.34,0.01356405
1633.411,0.01318574
1631.483,0.0127986
1629.554,0.01238074
1627.626,0.01195589
1625.698,0.0115461
1623.769,0.01113847
1621.841,0.0107333
1619.912,0.01035077
1617.984,0.009991786
1616.055,0.009638178
1614.127,0.009259444
1612.198,0.008827514
1610.27,0.008364476
1608.341,0.007913795
1606.413,0.00748889
1604.484,0.007109709
1602.556,0.006788622
1600.627,0.006496859
1598.699,0.006229713
1596.771,0.006012702
1594.842,0.005839902
1592.914,0.005695677
1590.985,0.005590701
1589.057,0.0055477
1587.128,0.005578246
1585.2,0.005672466
1583.271,0.005813089
1581.343,0.005985301
1579.414,0.0061825
1577.486,0.006423739
1575.557,0.006733067
1573.629,0.007101894
1571.7,0.007503007
1569.772,0.007928031
1567.844,0.008391052
1565.915,0.008913696
1563.987,0.009511367
1562.058,0.0101693
1560.13,0.01086265
1558.201,0.01158975
1556.273,0.01232969
1554.344,0.01302666
1552.416,0.01363026
1550.487,0.01410165
1548.559,0.01440547
1546.63,0.01451043
1544.702,0.01440812
1542.773,0.01413663
1540.845,0.01376298
1538.917,0.01333651
1536.988,0.01286411
1535.06,0.01234604
1533.131,0.01181284
1531.203,0.01129642
1529.274,0.01079985
1527.346,0.01031735
1525.417,0.009862914
1523.489,0.009461626
1521.56,0.009128354
1519.632,0.008846086
1517.703,0.008536279
1515.775,0.008112953
1513.846,0.007582288
1511.918,0.007022752
1509.99,0.006486165
1508.061,0.005974856
1506.133,0.00550355
1504.204,0.005095688
1502.276,0.004736227
1500.347,0.004403815
1498.419,0.00409554
1496.49,0.00381237
1494.562,0.003559371
1492.633,0.003335447
1490.705,0.003139197
1488.776,0.002985129
1486.848,0.002883828
1484.919,0.002836639
1482.991,0.002848755
1481.063,0.002921067
1479.134,0.003047506
1477.206,0.003223606
1475.277,0.003451491
1473.349,0.003720692
1471.42,0.003994345
1469.492,0.004242788
1467.563,0.004464408
1465.635,0.004672326
1463.706,0.004894689
1461.778,0.00514996
1459.849,0.005412773
1457.921,0.005636931
1455.992,0.005797741
1454.064,0.005888442
1452.135,0.005899987
1450.207,0.005836727
1448.279,0.005728935
1446.35,0.005610419
1444.422,0.005492959
1442.493,0.005370943
1440.565,0.005235023
1438.636,0.005081152
1436.708,0.004921654
1434.779,0.004778311
1432.851,0.004667877
1430.922,0.004603645
1428.994,0.004593887
1427.065,0.004632948
1425.137,0.004703464
1423.208,0.004782551
1421.28,0.004842752
1419.352,0.004874322
1417.423,0.004896573
1415.495,0.004917203
1413.566,0.004922178
1411.638,0.004919062
1409.709,0.004928147
1407.781,0.004943725
1405.852,0.004950978
1403.924,0.004949668
1401.995,0.004946527
1400.067,0.004942416
1398.138,0.004925634
1396.21,0.004883484
1394.281,0.004817335
1392.353,0.004740938
1390.425,0.004664895
1388.496,0.00457819
1386.568,0.004463388
1384.639,0.004325007
1382.711,0.004182984
1380.782,0.004046024
1378.854,0.003919321
1376.925,0.003820543
1374.997,0.003760432
1373.068,0.003732441
1371.14,0.003722024
1369.211,0.003709779
1367.283,0.003682836
1365.354,0.003649656
1363.426,0.003632898
1361.498,0.003635821
1359.569,0.003637753
1357.641,0.00363094
1355.712,0.00362799
1353.784,0.003638902
1351.855,0.003661952
1349.927,0.003691164
1347.998,0.00372406
1346.07,0.003760249
1344.141,0.003792367
1342.213,0.003817488
1340.284,0.003836709
1338.356,0.00384423
1336.427,0.003843734
1334.499,0.003850367
1332.571,0.003868466
1330.642,0.00389307
1328.714,0.003924049
1326.785,0.003965086
1324.857,0.00401684
1322.928,0.004072258
1321,0.004118327
1319.071,0.004146943
1317.143,0.004159017
1315.214,0.004157867
1313.286,0.004147492
1311.357,0.004128336
1309.429,0.004092848
1307.5,0.004037898
1305.572,0.003992621
1303.644,0.00398784
1301.715,0.004004534
1299.787,0.004013992
1297.858,0.004021046
1295.93,0.004033535
1294.001,0.004047487
1292.073,0.004062773
1290.144,0.004079652
1288.216,0.004093528
1286.287,0.004100374
1284.359,0.004101445
1282.43,0.004098284
1280.502,0.004088563
1278.573,0.004078712
1276.645,0.004079679
1274.717,0.00409149
1272.788,0.004111794
1270.86,0.004142631
1268.931,0.004179272
1267.003,0.00421116
1265.074,0.004232803
1263.146,0.004249193
1261.217,0.004269844
1259.289,0.004305869
1257.36,0.004360565
1255.432,0.004419348
1253.503,0.004469299
1251.575,0.00451426
1249.646,0.004555563
1247.718,0.00458324
1245.79,0.004585986
1243.861,0.004552476
1241.933,0.004483004
1240.004,0.004385903
1238.076,0.004260616
1236.147,0.004112081
1234.219,0.003955682
1232.29,0.003796048
1230.362,0.003634412
1228.433,0.003484342
1226.505,0.003353394
1224.576,0.003232656
1222.648,0.003115706
1220.719,0.003008614
1218.791,0.002924273
1216.863,0.002869053
1214.934,0.002837108
1213.006,0.002818452
1211.077,0.002805321
1209.149,0.002793154
1207.22,0.002773979
1205.292,0.002740296
1203.363,0.002697498
1201.435,0.002655251
1199.506,0.002619155
1197.578,0.002590743
1195.649,0.002569599
1193.721,0.002556944
1191.792,0.002548221
1189.864,0.00253653
1187.936,0.002527026
1186.007,0.002525594
1184.079,0.002536373
1182.15,0.002575432
1180.222,0.00265072
1178.293,0.00274785
1176.365,0.002850292
1174.436,0.002948067
1172.508,0.003039398
1170.579,0.003133174
1168.651,0.003236411
1166.722,0.003348385
1164.794,0.003461484
1162.865,0.003554229
1160.937,0.003612433
1159.009,0.003651118
1157.08,0.003685029
1155.152,0.003708056
1153.223,0.003719204
1151.295,0.003728551
1149.366,0.00373782
1147.438,0.003746149
1145.509,0.003763121
1143.581,0.003792889
1141.652,0.003825035
1139.724,0.003854833
1137.795,0.003887899
1135.867,0.003934314
1133.938,0.004005266
1132.01,0.004097892
1130.082,0.004192498
1128.153,0.004270759
1126.225,0.004327438
1124.296,0.004368749
1122.368,0.004401802
1120.439,0.004429547
1118.511,0.004450469
1116.582,0.004461767
1114.654,0.004470685
1112.725,0.004495401
1110.797,0.004542954
1108.868,0.004601788
1106.94,0.004661938
1105.011,0.004721311
1103.083,0.004778625
1101.155,0.00484037
1099.226,0.004909192
1097.298,0.00497834
1095.369,0.005056507
1093.441,0.005160071
1091.512,0.005285591
1089.584,0.005426534
1087.655,0.005587764
1085.727,0.005763481
1083.798,0.005933838
1081.87,0.006084913
1079.941,0.006206316
1078.013,0.00628699
1076.084,0.006321528
1074.156,0.006306688
1072.228,0.00624912
1070.299,0.006175358
1068.371,0.006115524
1066.442,0.006094023
1064.514,0.006120118
1062.585,0.006174413
1060.657,0.006239823
1058.728,0.006325861
1056.8,0.006439948
1054.871,0.006576956
1052.943,0.006724181
1051.014,0.006849654
1049.086,0.00692979
1047.157,0.006966957
1045.229,0.00694928
1043.301,0.006861357
1041.372,0.006721893
1039.444,0.006560688
1037.515,0.006398913
1035.587,0.006255344
1033.658,0.006133875
1031.73,0.006012545
1029.801,0.005881436
1027.873,0.005765895
1025.944,0.005676479
1024.016,0.005589626
1022.087,0.005489996
1020.159,0.005384912
1018.23,0.00528567
1016.302,0.005195646
1014.374,0.005112555
1012.445,0.005029402
1010.517,0.00493862
1008.588,0.004839009
1006.66,0.004731648
1004.731,0.004625779
1002.803,0.004537513
1000.874,0.004461558
998.946,0.004379235
997.017,0.004292562
995.089,0.004207396
993.16,0.004120234
991.232,0.004034266
989.303,0.003948002
987.375,0.003853266
985.447,0.003743251
983.518,0.003606873
981.59,0.003455196
979.661,0.003313405
977.733,0.003177475
975.804,0.003037052
973.876,0.002901861
971.947,0.002775986
970.019,0.002657726
968.09,0.00255749
966.162,0.00247368
964.233,0.002386839
962.305,0.002294916
960.376,0.002210115
958.448,0.002136646
956.52,0.00207466
954.591,0.002023397
952.663,0.001984701
950.734,0.001969827
948.806,0.001979526
946.877,0.001986027
944.949,0.001973857
943.02,0.001969255
941.092,0.001989954
939.163,0.002019393
937.235,0.002041291
935.306,0.002045062
933.378,0.002028885
931.449,0.002015206
929.521,0.002014555
927.593,0.002011669
925.664,0.001995727
923.736,0.00196317
921.807,0.001918811
919.879,0.00187534
917.95,0.001829898
916.022,0.001770451
914.093,0.001710154
912.165,0.001673902
910.236,0.001658545
908.308,0.001651087
906.379,0.00165366
904.451,0.001662391
902.522,0.001662235
900.594,0.001645734
898.666,0.001619517
896.737,0.001600108
894.809,0.001592288
892.88,0.001580545
890.952,0.001559423
889.023,0.001540277
887.095,0.001534458
885.166,0.001538069
883.238,0.001528094
881.309,0.001498818
879.381,0.00146035
877.452,0.001422951
875.524,0.001415601
873.595,0.001445416
871.667,0.001469727
869.739,0.001481389
867.81,0.001512559
865.882,0.00153929
863.953,0.001538407
862.025,0.001557994
860.096,0.001617958
858.168,0.001674058
856.239,0.001688039
854.311,0.001668081
852.382,0.00164958
850.454,0.001634197
848.525,0.001620011
846.597,0.001617542
844.668,0.001600056
842.74,0.001573686
840.812,0.001575349
838.883,0.001590158
836.955,0.001610163
835.026,0.001640901
833.098,0.001654803
831.169,0.001639134
829.241,0.00162448
827.312,0.00163981
825.384,0.001667925
823.455,0.001674292
821.527,0.001665743
819.598,0.001686506
817.67,0.001726397
815.741,0.001728372
813.813,0.001716053
811.885,0.001737936
809.956,0.001782303
808.028,0.001830756
806.099,0.00187118
804.171,0.001887741
802.242,0.001868216
800.314,0.001834655
798.385,0.001824127
796.457,0.001853892
794.528,0.001916471
792.6,0.001954277
790.671,0.001957319
788.743,0.001983349
786.814,0.002020927
784.886,0.002027923
782.958,0.002030862
781.029,0.002052682
779.101,0.002045816
777.172,0.001996429
775.244,0.00196213
773.315,0.001969515
771.387,0.001990656
769.458,0.002009094
767.53,0.00205172
765.601,0.002098226
763.673,0.002091359
761.744,0.002082853
759.816,0.002146896
757.887,0.002214694
755.959,0.00217827
754.031,0.00211157
752.102,0.002169139
750.174,0.002299184
748.245,0.002354617
746.317,0.00230785
744.388,0.002185476
742.46,0.002061447
740.531,0.002002671
738.603,0.00197742
736.674,0.002048937
734.746,0.002224763
732.817,0.002281436
730.889,0.002206004
728.96,0.002163025
727.032,0.002134695
725.104,0.002001604
723.175,0.001752959
721.247,0.001631547
719.318,0.001733752
717.39,0.001813937
715.461,0.001906279
713.533,0.00219388
711.604,0.00245668
709.676,0.002459257
707.747,0.002349178
705.819,0.002348449
703.89,0.002461131
701.962,0.00255197
700.033,0.002540904
698.105,0.002422552
696.177,0.002218649
694.248,0.001945592
692.32,0.001640745
690.391,0.001414588
688.463,0.001221489
686.534,0.000869733
684.606,0.000476304
682.677,0.000289657
680.749,0.000137191
678.82,-5.28E-05
676.892,0.000176708
674.963,0.000888409
673.035,0.001172377
671.106,-0.000450751
669.178,-0.003568538
667.25,-0.003786816
665.321,-0.000640929
663.393,0.001000064
661.464,0.00090654
659.536,0.000938707
657.607,0.001207238
655.679,0.001241893
653.75,0.001266841
651.822,0.001331906
649.893,0.000963431
647.965,0.000789981
646.036,0.001720289
644.108,0.002677598
642.179,0.002769446
640.251,0.002794717
638.323,0.00322272
636.394,0.00407832
634.466,0.005248228
632.537,0.005600587
630.609,0.004581042
628.68,0.003753878
626.752,0.004084905
624.823,0.004791764
622.895,0.005743467
620.966,0.006288093
619.038,0.005864013
617.109,0.006020603
615.181,0.007237742
613.252,0.007852719
611.324,0.006548101
609.396,0.005227425
607.467,0.005716844
605.539,0.006582633
603.61,0.008444048
601.682,0.01296787
599.753,0.01664596
597.825,0.01512883
595.896,0.01132296
593.968,0.009016995
592.039,0.007266959
590.111,0.008156921
588.182,0.01219977
586.254,0.01365652
584.325,0.01256176
582.397,0.013293
580.469,0.01458937
578.54,0.01325171
576.612,0.009652814
574.683,0.007575861
572.755,0.009780249
570.826,0.01420683
568.898,0.01836774
566.969,0.0204548
565.041,0.01892014
563.112,0.01589137
561.184,0.01405959
559.255,0.01460771
557.327,0.01543485
555.398,0.01359067
553.47,0.0127605
551.542,0.01564653
549.613,0.01858099
547.685,0.02099329
545.756,0.02300037
543.828,0.02185649
541.899,0.01962236
539.971,0.01942302
538.042,0.01985739
536.114,0.01922013
534.185,0.01837611
532.257,0.02044077
530.328,0.02423266
528.4,0.02520194
526.471,0.02560698
524.543,0.02782825
522.615,0.02659765
520.686,0.02117084
518.758,0.0198271
516.829,0.02310535
514.901,0.02342191
512.972,0.02348038
511.044,0.02763295
509.115,0.02807382
507.187,0.02138376
505.258,0.01616246
503.33,0.01711542
501.401,0.01903753
499.473,0.01730723
497.544,0.0156924
495.616,0.01847207
493.688,0.02162075
491.759,0.02047602
489.831,0.01856192
487.902,0.01776348
485.974,0.01542871
484.045,0.01429593
482.117,0.01678715
480.188,0.02057261
478.26,0.02303752
476.331,0.02093643
474.403,0.01486206
472.474,0.01084707
470.546,0.01268611
468.617,0.01778195
466.689,0.02149801
464.76,0.02141104
462.832,0.01847113
460.904,0.01837665
458.975,0.02338044
457.047,0.02660412
455.118,0.02471296
453.19,0.0226737
451.261,0.02372732
449.333,0.02535988
447.404,0.02531624
445.476,0.02471584
443.547,0.02309364
441.619,0.01956037
439.69,0.01702953
437.762,0.01748902
435.833,0.01892447
433.905,0.01887728
431.977,0.01757759
430.048,0.01690162
428.12,0.01693631
426.191,0.01692108
424.263,0.01772217
422.334,0.01929752
420.406,0.01986541
418.477,0.01904962
416.549,0.01822013
414.62,0.0183139
412.692,0.01915341
410.763,0.01998672
408.835,0.02086214
406.906,0.02147799
404.978,0.02040105
403.05,0.01954908
401.121,0.02052416
399.193,0.02009135
