Wavenumbers [1/cm],Absorbance
3997.712,-0.000121285
3995.783,-0.00013676
3993.855,-0.000138882
3991.926,-0.000132102
3989.998,-0.000134742
3988.069,-0.000140538
3986.141,-0.000136346
3984.212,-0.000129928
3982.284,-0.000121233
3980.355,-0.000105809
3978.427,-9.18E-05
3976.499,-9.09E-05
3974.57,-0.000106585
3972.642,-0.000127858
3970.713,-0.000142764
3968.785,-0.000144161
3966.856,-0.000128686
3964.928,-0.000109484
3962.999,-0.000108086
3961.071,-0.000120508
3959.142,-0.000122993
3957.214,-0.000115436
3955.285,-0.000114297
3953.357,-0.000122786
3951.428,-0.000135363
3949.5,-0.000144161
3947.572,-0.000144368
3945.643,-0.000144368
3943.715,-0.000152131
3941.786,-0.000157565
3939.858,-0.000149181
3937.929,-0.00013381
3936.001,-0.000128117
3934.072,-0.000133862
3932.144,-0.000135984
3930.215,-0.000132982
3928.287,-0.000134586
3926.358,-0.000135984
3924.43,-0.000132464
3922.501,-0.000134742
3920.573,-0.000145558
3918.645,-0.000154512
3916.716,-0.000157721
3914.788,-0.000157358
3912.859,-0.000152442
3910.931,-0.000142401
3909.002,-0.000131429
3907.074,-0.000133551
3905.145,-0.00015063
3903.217,-0.000161343
3901.288,-0.00015446
3899.36,-0.000143126
3897.431,-0.000140486
3895.503,-0.000141211
3893.574,-0.000140745
3891.646,-0.000145817
3889.718,-0.000157928
3887.789,-0.000172108
3885.861,-0.000171694
3883.932,-0.000147836
3882.004,-0.000130446
3880.075,-0.000142557
3878.147,-0.000161602
3876.218,-0.0001645
3874.29,-0.000162068
3872.361,-0.000172004
3870.433,-0.000187064
3868.504,-0.000188823
3866.576,-0.000176713
3864.647,-0.00016538
3862.719,-0.00016657
3860.791,-0.000176972
3858.862,-0.000181992
3856.934,-0.000175264
3855.005,-0.000169934
3853.077,-0.000178628
3851.148,-0.000189289
3849.22,-0.000183389
3847.291,-0.000162585
3845.363,-0.000146386
3843.434,-0.000146542
3841.506,-0.000157824
3839.577,-0.000177438
3837.649,-0.000193791
3835.72,-0.000192808
3833.792,-0.000185822
3831.864,-0.00018401
3829.935,-0.00017987
3828.007,-0.000174022
3826.078,-0.000172159
3824.15,-0.000166829
3822.221,-0.000167657
3820.293,-0.000187633
3818.364,-0.000200104
3816.436,-0.000192963
3814.507,-0.000191152
3812.579,-0.00020471
3810.65,-0.000220958
3808.722,-0.000224218
3806.793,-0.000212368
3804.865,-0.000193066
3802.937,-0.000175937
3801.008,-0.000173815
3799.08,-0.00018665
3797.151,-0.000201346
3795.223,-0.000211954
3793.294,-0.000216819
3791.366,-0.000212213
3789.437,-0.000202899
3787.509,-0.00020352
3785.58,-0.000211333
3783.652,-0.000213662
3781.723,-0.000216301
3779.795,-0.000224011
3777.866,-0.000230945
3775.938,-0.000233998
3774.01,-0.000236482
3772.081,-0.000241708
3770.153,-0.000233532
3768.224,-0.000210299
3766.296,-0.000205383
3764.367,-0.000229444
3762.439,-0.000253557
3760.51,-0.000255006
3758.582,-0.000249159
3756.653,-0.000250349
3754.725,-0.000239379
3752.796,-0.000222666
3750.868,-0.000232704
3748.939,-0.000265561
3747.011,-0.000301415
3745.083,-0.000351389
3743.154,-0.000436373
3741.226,-0.000543162
3739.297,-0.00064491
3737.369,-0.000748546
3735.44,-0.000870139
3733.512,-0.000996966
3731.583,-0.001101138
3729.655,-0.001156493
3727.726,-0.001169712
3725.798,-0.001165529
3723.869,-0.001133257
3721.941,-0.001050062
3720.012,-0.000913641
3718.084,-0.000749166
3716.156,-0.000610842
3714.227,-0.000562914
3712.299,-0.000634364
3710.37,-0.000772371
3708.442,-0.000903567
3706.513,-0.00101086
3704.585,-0.001095303
3702.656,-0.001151795
3700.728,-0.001183446
3698.799,-0.001185459
3696.871,-0.001152776
3694.942,-0.001110795
3693.014,-0.001088692
3691.085,-0.001074439
3689.157,-0.00103808
3687.229,-0.000990303
3685.3,-0.000963752
3683.372,-0.000968039
3681.443,-0.000993505
3679.515,-0.001024496
3677.586,-0.00105688
3675.658,-0.001076092
3673.729,-0.001069843
3671.801,-0.001070462
3669.872,-0.001095251
3667.944,-0.001139815
3666.015,-0.001206524
3664.087,-0.001268938
3662.158,-0.001299807
3660.23,-0.001315859
3658.302,-0.001346414
3656.373,-0.001385637
3654.445,-0.001422845
3652.516,-0.001475786
3650.588,-0.001540586
3648.659,-0.001589437
3646.731,-0.001627194
3644.802,-0.001680936
3642.874,-0.001743488
3640.945,-0.001792214
3639.017,-0.001850729
3637.088,-0.001950882
3635.16,-0.002060391
3633.231,-0.002132883
3631.303,-0.002189138
3629.375,-0.002273557
3627.446,-0.0023697
3625.518,-0.002410838
3623.589,-0.002382521
3621.661,-0.002330205
3619.732,-0.002259085
3617.804,-0.00215416
3615.875,-0.002030247
3613.947,-0.001924029
3612.018,-0.001887535
3610.09,-0.001948254
3608.161,-0.002068326
3606.233,-0.002175641
3604.304,-0.002237195
3602.376,-0.00225105
3600.448,-0.002229675
3598.519,-0.002224267
3596.591,-0.002239668
3594.662,-0.002224009
3592.734,-0.002179093
3590.805,-0.002131853
3588.877,-0.002083011
3586.948,-0.002050034
3585.02,-0.002034936
3583.091,-0.002004068
3581.163,-0.001965313
3579.234,-0.001936193
3577.306,-0.001894133
3575.377,-0.001842635
3573.449,-0.001823509
3571.521,-0.001854801
3569.592,-0.001894907
3567.664,-0.001897999
3565.735,-0.001869596
3563.807,-0.00183949
3561.878,-0.00184346
3559.95,-0.001882535
3558.021,-0.001907381
3556.093,-0.001895422
3554.164,-0.001873926
3552.236,-0.001875782
3550.307,-0.001905834
3548.379,-0.001930472
3546.45,-0.001919236
3544.522,-0.001910009
3542.594,-0.001954284
3540.665,-0.002032463
3538.737,-0.002104084
3536.808,-0.002146226
3534.88,-0.002149523
3532.951,-0.002150966
3531.023,-0.002175538
3529.094,-0.002204282
3527.166,-0.002236783
3525.237,-0.00226578
3523.309,-0.002267068
3521.38,-0.002251359
3519.452,-0.002243427
3517.523,-0.002259033
3515.595,-0.002318361
3513.667,-0.00241851
3511.738,-0.002494803
3509.81,-0.002505201
3507.881,-0.00250098
3505.953,-0.002519201
3504.024,-0.002532481
3502.096,-0.0025349
3500.167,-0.002544217
3498.239,-0.002582765
3496.31,-0.00266541
3494.382,-0.002731782
3492.453,-0.002765325
3490.525,-0.00286033
3488.596,-0.002971923
3486.668,-0.002990794
3484.74,-0.003005807
3482.811,-0.003119471
3480.883,-0.003254789
3478.954,-0.003291374
3477.026,-0.003237061
3475.097,-0.003207255
3473.169,-0.003237678
3471.24,-0.003260287
3469.312,-0.003269537
3467.383,-0.003313108
3465.455,-0.003397463
3463.526,-0.003496336
3461.598,-0.003575367
3459.669,-0.003661725
3457.741,-0.003796105
3455.813,-0.003906381
3453.884,-0.003943629
3451.956,-0.003997085
3450.027,-0.004096539
3448.099,-0.004163103
3446.17,-0.004221659
3444.242,-0.004349459
3442.313,-0.004471277
3440.385,-0.00450115
3438.456,-0.004493772
3436.528,-0.004500587
3434.599,-0.00454803
3432.671,-0.00468229
3430.742,-0.004851273
3428.814,-0.004981959
3426.885,-0.005089887
3424.957,-0.005193031
3423.029,-0.005292263
3421.1,-0.005331541
3419.172,-0.005285768
3417.243,-0.005315022
3415.315,-0.005476704
3413.386,-0.005601989
3411.458,-0.005667351
3409.529,-0.005776642
3407.601,-0.005914353
3405.672,-0.006071982
3403.744,-0.006237057
3401.815,-0.006327173
3399.887,-0.006330337
3397.958,-0.006267829
3396.03,-0.006205619
3394.102,-0.006237261
3392.173,-0.006279158
3390.245,-0.006293139
3388.316,-0.006446908
3386.388,-0.006677102
3384.459,-0.006793886
3382.531,-0.006856828
3380.602,-0.006906868
3378.674,-0.006916397
3376.745,-0.006931836
3374.817,-0.006986453
3372.888,-0.007011772
3370.96,-0.006924652
3369.031,-0.00685061
3367.103,-0.006789299
3365.175,-0.006676898
3363.246,-0.006770593
3361.318,-0.007042999
3359.389,-0.007193651
3357.461,-0.007187591
3355.532,-0.00703979
3353.604,-0.006781705
3351.675,-0.006576044
3349.747,-0.0064794
3347.818,-0.006412578
3345.89,-0.006383397
3343.961,-0.00640819
3342.033,-0.00648399
3340.104,-0.006630655
3338.176,-0.006783641
3336.248,-0.006911964
3334.319,-0.006979983
3332.391,-0.00692083
3330.462,-0.006761877
3328.534,-0.006618061
3326.605,-0.006657882
3324.677,-0.006774365
3322.748,-0.006707588
3320.82,-0.006515867
3318.891,-0.006299722
3316.963,-0.006068103
3315.034,-0.005958017
3313.106,-0.005989881
3311.177,-0.00598743
3309.249,-0.005900972
3307.321,-0.00576249
3305.392,-0.005626469
3303.464,-0.005651254
3301.535,-0.005768928
3299.607,-0.005715588
3297.678,-0.005511364
3295.75,-0.005343661
3293.821,-0.005239888
3291.893,-0.005149852
3289.964,-0.005119257
3288.036,-0.00525155
3286.107,-0.005423481
3284.179,-0.005398683
3282.25,-0.005270986
3280.322,-0.005213749
3278.394,-0.005192673
3276.465,-0.005198505
3274.537,-0.005264184
3272.608,-0.005350258
3270.68,-0.005407682
3268.751,-0.005395921
3266.823,-0.00528183
3264.894,-0.005222957
3262.966,-0.005387536
3261.037,-0.005515351
3259.109,-0.005407733
3257.18,-0.005332564
3255.252,-0.005456049
3253.323,-0.005681966
3251.395,-0.005928704
3249.467,-0.00607816
3247.538,-0.006017403
3245.61,-0.005837228
3243.681,-0.00575028
3241.753,-0.005859958
3239.824,-0.006007191
3237.896,-0.005949234
3235.967,-0.005789618
3234.039,-0.005787932
3232.11,-0.005814241
3230.182,-0.005680893
3228.253,-0.005638018
3226.325,-0.005813884
3224.396,-0.005955259
3222.468,-0.005992128
3220.54,-0.006042779
3218.611,-0.006088574
3216.683,-0.006025062
3214.754,-0.005884169
3212.826,-0.005788341
3210.897,-0.005774956
3208.969,-0.005782926
3207.04,-0.005720339
3205.112,-0.005615072
3203.183,-0.0055588
3201.255,-0.005563502
3199.326,-0.005533805
3197.398,-0.005395103
3195.469,-0.005276715
3193.541,-0.005216204
3191.613,-0.005070442
3189.684,-0.00492458
3187.756,-0.004945107
3185.827,-0.005011643
3183.899,-0.00494265
3181.97,-0.004762079
3180.042,-0.004579486
3178.113,-0.004476862
3176.185,-0.004476504
3174.256,-0.004508989
3172.328,-0.004480654
3170.399,-0.004392409
3168.471,-0.004326444
3166.542,-0.004293586
3164.614,-0.004286512
3162.686,-0.004290767
3160.757,-0.004171872
3158.829,-0.003900839
3156.9,-0.003665421
3154.972,-0.003600475
3153.043,-0.003679949
3151.115,-0.003764849
3149.186,-0.003714753
3147.258,-0.00357624
3145.329,-0.003488068
3143.401,-0.003451037
3141.472,-0.003387806
3139.544,-0.003304579
3137.615,-0.00325371
3135.687,-0.003202425
3133.759,-0.00311212
3131.83,-0.003016656
3129.902,-0.002907491
3127.973,-0.002766302
3126.045,-0.00265337
3124.116,-0.002610401
3122.188,-0.002588838
3120.259,-0.002515804
3118.331,-0.002383293
3116.402,-0.002242912
3114.474,-0.002127834
3112.545,-0.002005666
3110.617,-0.001850162
3108.688,-0.001698934
3106.76,-0.001584743
3104.832,-0.001502151
3102.903,-0.001433475
3100.975,-0.001344195
3099.046,-0.001219947
3097.118,-0.001117921
3095.189,-0.001050682
3093.261,-0.000938129
3091.332,-0.000758159
3089.404,-0.000572531
3087.475,-0.000449872
3085.547,-0.000398461
3083.618,-0.000350148
3081.69,-0.000254954
3079.761,-0.000128531
3077.833,-1.18E-05
3075.905,9.45E-05
3073.976,0.00021514
3072.048,0.000326415
3070.119,0.000400148
3068.191,0.000462026
3066.262,0.000547056
3064.334,0.000647891
3062.405,0.000729691
3060.477,0.000773307
3058.548,0.000789385
3056.62,0.000808861
3054.691,0.000835522
3052.763,0.00084045
3050.834,0.000825693
3048.906,0.000828156
3046.978,0.000859124
3045.049,0.000883454
3043.121,0.000885374
3041.192,0.00089121
3039.264,0.000920496
3037.335,0.000959332
3035.407,0.000980917
3033.478,0.000988493
3031.55,0.001000453
3029.621,0.001020977
3027.693,0.001053827
3025.764,0.001075884
3023.836,0.001050713
3021.907,0.000991814
3019.979,0.000929705
3018.051,0.000881509
3016.122,0.000874013
3014.194,0.000905062
3012.265,0.000934453
3010.337,0.000954454
3008.408,0.000989608
3006.48,0.001042539
3004.551,0.001098176
3002.623,0.001141828
3000.694,0.001179749
2998.766,0.001241659
2996.837,0.001325077
2994.909,0.001404771
2992.98,0.001483363
2991.052,0.00156106
2989.124,0.001639004
2987.195,0.001742744
2985.267,0.001872012
2983.338,0.001992763
2981.41,0.002097055
2979.481,0.002214382
2977.553,0.002352535
2975.624,0.00247998
2973.696,0.002580718
2971.767,0.002676192
2969.839,0.002784557
2967.91,0.002885365
2965.982,0.002950777
2964.053,0.002995451
2962.125,0.003039216
2960.197,0.003063825
2958.268,0.003058011
2956.34,0.00304138
2954.411,0.003018701
2952.483,0.002985624
2950.554,0.00295354
2948.626,0.002933133
2946.697,0.002937538
2944.769,0.00297843
2942.84,0.003041432
2940.912,0.003094744
2938.983,0.003116983
2937.055,0.003114298
2935.126,0.003097846
2933.198,0.00306565
2931.27,0.003025427
2929.341,0.002980151
2927.413,0.002924715
2925.484,0.002876949
2923.556,0.002840756
2921.627,0.002796254
2919.699,0.002742536
2917.77,0.002682182
2915.842,0.002622541
2913.913,0.002581056
2911.985,0.002547336
2910.056,0.002503385
2908.128,0.002453452
2906.199,0.002408183
2904.271,0.00237989
2902.343,0.002368802
2900.414,0.002360811
2898.486,0.002348683
2896.557,0.002327862
2894.629,0.002306496
2892.7,0.002300121
2890.772,0.002304441
2888.843,0.002319639
2886.915,0.002350245
2884.986,0.002380645
2883.058,0.002402483
2881.129,0.002425025
2879.201,0.002449
2877.272,0.002450875
2875.344,0.002414014
2873.416,0.002358599
2871.487,0.002304675
2869.559,0.002246906
2867.63,0.002173769
2865.702,0.002082203
2863.773,0.00198777
2861.845,0.001912805
2859.916,0.001861691
2857.988,0.001823633
2856.059,0.00177843
2854.131,0.001721381
2852.202,0.001670992
2850.274,0.001639342
2848.345,0.001624558
2846.417,0.001612372
2844.489,0.00158904
2842.56,0.001566541
2840.632,0.001555059
2838.703,0.001547109
2836.775,0.001543187
2834.846,0.001537965
2832.918,0.001509962
2830.989,0.001463311
2829.061,0.001427288
2827.132,0.001410459
2825.204,0.001402979
2823.275,0.001402018
2821.347,0.00140568
2819.418,0.001399292
2817.49,0.001385476
2815.562,0.001386047
2813.633,0.001391942
2811.705,0.001380049
2809.776,0.001351952
2807.848,0.001322766
2805.919,0.001302592
2803.991,0.001284833
2802.062,0.001267724
2800.134,0.001258741
2798.205,0.001250382
2796.277,0.001233638
2794.348,0.001210924
2792.42,0.001184629
2790.491,0.001158439
2788.563,0.001142633
2786.635,0.001139778
2784.706,0.001138999
2782.778,0.001131265
2780.849,0.001119327
2778.921,0.001112683
2776.992,0.00110892
2775.064,0.00109693
2773.135,0.001081308
2771.207,0.001070253
2769.278,0.001054372
2767.35,0.001025025
2765.421,0.00099376
2763.493,0.000976039
2761.564,0.000968023
2759.636,0.000958501
2757.708,0.000949629
2755.779,0.000940679
2753.851,0.00092776
2751.922,0.000917928
2749.994,0.000914789
2748.065,0.000913829
2746.137,0.00091261
2744.208,0.000901638
2742.28,0.000872716
2740.351,0.000842214
2738.423,0.000829453
2736.494,0.000828675
2734.566,0.000824085
2732.637,0.000815137
2730.709,0.00080842
2728.781,0.000797243
2726.852,0.000779401
2724.924,0.000767965
2722.995,0.000767316
2721.067,0.000768328
2719.138,0.000762726
2717.21,0.000751083
2715.281,0.000740996
2713.353,0.000735007
2711.424,0.000728109
2709.496,0.000717271
2707.567,0.000707392
2705.639,0.00070441
2703.71,0.000701533
2701.782,0.000688595
2699.854,0.000674776
2697.925,0.000674698
2695.997,0.000676643
2694.068,0.000662513
2692.14,0.000643847
2690.211,0.000642732
2688.283,0.000653517
2686.354,0.000653076
2684.426,0.000639103
2682.497,0.000629304
2680.569,0.000629926
2678.64,0.000630496
2676.712,0.000622667
2674.783,0.000610354
2672.855,0.000601385
2670.927,0.000592442
2668.998,0.000577408
2667.07,0.000565407
2665.141,0.000563696
2663.213,0.000561726
2661.284,0.00055281
2659.356,0.000543764
2657.427,0.000539903
2655.499,0.00053871
2653.57,0.000537622
2651.642,0.000536456
2649.713,0.000534849
2647.785,0.000529276
2645.856,0.000512586
2643.928,0.000490505
2642,0.000488614
2640.071,0.000509683
2638.143,0.000520801
2636.214,0.000501623
2634.286,0.000464539
2632.357,0.000426966
2630.429,0.000398905
2628.5,0.00039393
2626.572,0.00040533
2624.643,0.000406082
2622.715,0.000393567
2620.786,0.000372685
2618.858,0.000353928
2616.929,0.000355197
2615.001,0.000357529
2613.073,0.000350197
2611.144,0.000358617
2609.216,0.000374317
2607.287,0.000380198
2605.359,0.000393049
2603.43,0.000411342
2601.502,0.000415591
2599.573,0.000414244
2597.645,0.000409476
2595.716,0.000384111
2593.788,0.000350586
2591.859,0.000338177
2589.931,0.00033841
2588.002,0.000311442
2586.074,0.000258004
2584.146,0.000229721
2582.217,0.000231068
2580.289,0.000226794
2578.36,0.00023933
2576.432,0.000269971
2574.503,0.000245753
2572.575,0.00018414
2570.646,0.000184192
2568.718,0.000224489
2566.789,0.000223557
2564.861,0.000196027
2562.932,0.000185849
2561.004,0.00018932
2559.075,0.000203045
2557.147,0.000204884
2555.219,0.000148223
2553.29,7.28E-05
2551.362,4.21E-05
2549.433,3.10E-05
2547.505,2.30E-05
2545.576,4.70E-05
2543.648,9.49E-05
2541.719,0.000123986
2539.791,0.000123494
2537.862,0.00010076
2535.934,7.20E-05
2534.005,7.95E-05
2532.077,0.000103996
2530.148,9.00E-05
2528.22,5.02E-05
2526.292,2.65E-05
2524.363,5.90E-05
2522.435,0.000133463
2520.506,0.000174481
2518.578,0.000176552
2516.649,0.000173522
2514.721,0.000152935
2512.792,0.000128983
2510.864,0.000120128
2508.935,0.000116503
2507.007,0.000123028
2505.078,0.000126031
2503.15,0.000104411
2501.221,6.81E-05
2499.293,5.94E-05
2497.365,9.20E-05
2495.436,8.73E-05
2493.508,2.37E-05
2491.579,-1.56E-05
2489.651,-1.48E-05
2487.722,-5.95E-06
2485.794,1.69E-05
2483.865,3.20E-05
2481.937,8.52E-06
2480.008,-2.59E-07
2478.08,3.91E-05
2476.151,6.08E-05
2474.223,3.43E-05
2472.294,-2.26E-05
2470.366,-9.94E-05
2468.438,-0.000136449
2466.509,-0.000104101
2464.581,-5.79E-05
2462.652,-1.84E-05
2460.724,2.43E-05
2458.795,4.73E-05
2456.867,2.73E-05
2454.938,-1.11E-05
2453.01,-5.01E-05
2451.081,-0.000111554
2449.153,-0.000155185
2447.224,-0.000136708
2445.296,-0.000104567
2443.367,-9.76E-05
2441.439,-0.000113728
2439.51,-0.00015534
2437.582,-0.000205952
2435.654,-0.000214697
2433.725,-0.000156944
2431.797,-9.60E-05
2429.868,-9.09E-05
2427.94,-9.63E-05
2426.011,-8.04E-05
2424.083,-7.90E-05
2422.154,-0.000102134
2420.226,-0.000128427
2418.297,-0.000135621
2416.369,-0.000128841
2414.44,-0.000118852
2412.512,-0.000119784
2410.583,-0.000150889
2408.655,-0.000179146
2406.727,-0.000208229
2404.798,-0.00026763
2402.87,-0.000299087
2400.941,-0.000273787
2399.013,-0.000234308
2397.084,-0.00019819
2395.156,-0.000166777
2393.227,-0.000154822
2391.299,-0.000173867
2389.37,-0.0002385
2387.442,-0.000388582
2385.513,-0.000721825
2383.585,-0.001385741
2381.656,-0.002508392
2379.728,-0.004136592
2377.8,-0.006187347
2375.871,-0.008476299
2373.943,-0.01079259
2372.014,-0.01298547
2370.086,-0.01501746
2368.157,-0.0168741
2366.229,-0.01845383
2364.3,-0.01961988
2362.372,-0.02036236
2360.443,-0.02067036
2358.515,-0.02039294
2356.586,-0.01941823
2354.658,-0.01765021
2352.729,-0.01490652
2350.801,-0.01186059
2348.873,-0.0103937
2346.944,-0.01149808
2345.016,-0.01383742
2343.087,-0.01532523
2341.159,-0.01566049
2339.23,-0.01549152
2337.302,-0.01512762
2335.373,-0.01474916
2333.445,-0.01449477
2331.516,-0.01427319
2329.588,-0.01380332
2327.659,-0.01308756
2325.731,-0.01243476
2323.802,-0.01193409
2321.874,-0.01132768
2319.946,-0.0103841
2318.017,-0.009193106
2316.089,-0.008050881
2314.16,-0.007145527
2312.232,-0.006380744
2310.303,-0.005608633
2308.375,-0.004833968
2306.446,-0.004096386
2304.518,-0.003420065
2302.589,-0.002881674
2300.661,-0.002496553
2298.732,-0.002174096
2296.804,-0.001881556
2294.875,-0.001615537
2292.947,-0.001365149
2291.019,-0.001152776
2289.09,-0.000966076
2287.162,-0.000777281
2285.233,-0.000610428
2283.305,-0.000506914
2281.376,-0.000501432
2279.448,-0.000628936
2277.519,-0.000819088
2275.591,-0.000903722
2273.662,-0.000806014
2271.734,-0.000626868
2269.805,-0.000517411
2267.877,-0.00046849
2265.948,-0.000448838
2264.02,-0.000470352
2262.092,-0.00044289
2260.163,-0.000455923
2258.235,-0.0006843
2256.306,-0.000952439
2254.378,-0.001036376
2252.449,-0.00095466
2250.521,-0.000752784
2248.592,-0.000497657
2246.664,-0.000317143
2244.735,-0.000248072
2242.807,-0.000318281
2240.878,-0.000586852
2238.95,-0.000890237
2237.021,-0.001062147
2235.093,-0.001161657
2233.165,-0.001098711
2231.236,-0.000885897
2229.308,-0.000806737
2227.379,-0.0008133
2225.451,-0.000669206
2223.522,-0.000503346
2221.594,-0.000473507
2219.665,-0.000286308
2217.737,5.35E-05
2215.808,-8.80E-07
2213.88,-0.000659694
2211.951,-0.001776539
2210.023,-0.002699884
2208.094,-0.002577362
2206.166,-0.001811445
2204.238,-0.001377019
2202.309,-0.001309665
2200.381,-0.001327989
2198.452,-0.001495237
2196.524,-0.001790667
2194.595,-0.00200716
2192.667,-0.001976755
2190.738,-0.001816806
2188.81,-0.001758648
2186.881,-0.001559776
2184.953,-0.000877786
2183.024,0.000124788
2181.096,0.000908252
2179.167,0.000951549
2177.239,0.000164925
2175.311,-0.001263983
2173.382,-0.002683059
2171.454,-0.003442049
2169.525,-0.003966048
2167.597,-0.004295022
2165.668,-0.003949478
2163.74,-0.003311361
2161.811,-0.002948733
2159.883,-0.003187932
2157.954,-0.003189011
2156.026,-0.002078013
2154.097,-0.000915501
2152.169,-0.00060774
2150.24,-0.00137578
2148.312,-0.002296783
2146.384,-0.002475036
2144.455,-0.002360998
2142.527,-0.002041841
2140.598,-0.001358853
2138.67,-0.000775472
2136.741,-0.000423495
2134.813,-0.000217853
2132.884,-0.000231721
2130.956,-0.000385633
2129.027,-0.000662589
2127.099,-0.001062251
2125.17,-0.001351266
2123.242,-0.001299239
2121.313,-0.000976304
2119.385,-0.000713504
2117.457,-0.000633278
2115.528,-0.000555003
2113.6,-0.000445735
2111.671,-0.000440511
2109.743,-0.000502829
2107.814,-0.00043296
2105.886,-0.000210143
2103.957,-5.42E-05
2102.029,-0.000138054
2100.1,-0.00044077
2098.172,-0.000676443
2096.243,-0.000606189
2094.315,-0.0004899
2092.386,-0.000446355
2090.458,-0.000256454
2088.53,-0.00017692
2086.601,-0.000426443
2084.673,-0.000600502
2082.744,-0.000454423
2080.816,-0.000131843
2078.887,0.00013424
2076.959,9.92E-05
2075.03,-0.000227168
2073.102,-0.000662227
2071.173,-0.000993247
2069.245,-0.001088331
2067.316,-0.001149678
2065.388,-0.001248703
2063.459,-0.001168163
2061.531,-0.000851641
2059.603,-0.000402185
2057.674,-0.000111865
2055.746,-0.000238137
2053.817,-0.000646409
2051.889,-0.001104391
2049.96,-0.001479191
2048.032,-0.001792626
2046.103,-0.001961706
2044.175,-0.001366646
2042.246,-0.00017278
2040.318,0.000496077
2038.389,0.000643899
2036.461,0.000581892
2034.532,-0.000464974
2032.604,-0.002063122
2030.676,-0.002879
2028.747,-0.00273559
2026.819,-0.001555959
2024.89,-3.18E-05
2022.962,0.000646984
2021.033,0.000910717
2019.105,0.001313679
2017.176,0.001239193
2015.248,0.000247722
2013.319,-0.001094786
2011.391,-0.001894752
2009.462,-0.00216745
2007.534,-0.002287359
2005.605,-0.00206812
2003.677,-0.001474857
2001.749,-0.000712057
1999.82,-0.000154926
1997.892,-0.000393547
1995.963,-0.001027595
1994.035,-0.001141364
1992.106,-0.000869829
1990.178,-0.000828441
1988.249,-0.001067467
1986.321,-0.001274152
1984.392,-0.001742818
1982.464,-0.002774019
1980.535,-0.003623785
1978.607,-0.003768904
1976.678,-0.00321039
1974.75,-0.00227984
1972.822,-0.001942687
1970.893,-0.002304972
1968.965,-0.002815891
1967.036,-0.00272885
1965.108,-0.001679801
1963.179,-0.000596107
1961.251,-0.000221527
1959.322,-0.000210143
1957.394,-8.95E-05
1955.465,9.51E-05
1953.537,-7.20E-06
1951.608,-0.000372339
1949.68,-0.000709886
1947.751,-0.001101551
1945.823,-0.001618529
1943.895,-0.001791337
1941.966,-0.001308426
1940.038,-0.000674479
1938.109,-0.000468749
1936.181,-0.000499622
1934.252,-0.000420702
1932.324,-0.000446873
1930.395,-0.000711953
1928.467,-0.000812008
1926.538,-0.000534423
1924.61,-0.000242018
1922.681,-0.00014975
1920.753,-4.83E-05
1918.824,8.65E-05
1916.896,2.35E-05
1914.968,-0.000261266
1913.039,-0.000488401
1911.111,-0.000463888
1909.182,-0.000288843
1907.254,-0.00017692
1905.325,-0.000289774
1903.397,-0.000524857
1901.468,-0.000655301
1899.54,-0.000657213
1897.611,-0.000584216
1895.683,-0.00050107
1893.754,-0.000481885
1891.826,-0.000522065
1889.897,-0.0005807
1887.969,-0.000603448
1886.041,-0.000576253
1884.112,-0.000526874
1882.184,-0.000463215
1880.255,-0.000399961
1878.327,-0.000355838
1876.398,-0.000366546
1874.47,-0.000430581
1872.541,-0.000437356
1870.613,-0.000372391
1868.684,-0.000357649
1866.756,-0.000403065
1864.827,-0.000435856
1862.899,-0.000410047
1860.97,-0.000341302
1859.042,-0.000326248
1857.114,-0.000372288
1855.185,-0.00039903
1853.257,-0.000404875
1851.328,-0.000399237
1849.4,-0.000370322
1847.471,-0.000358321
1845.543,-0.000377874
1843.614,-0.000407202
1841.686,-0.000466887
1839.757,-0.000519686
1837.829,-0.000473093
1835.9,-0.000367167
1833.972,-0.000318746
1832.043,-0.000341716
1830.115,-0.000386875
1828.187,-0.000416616
1826.258,-0.000410668
1824.33,-0.000400271
1822.401,-0.000415788
1820.473,-0.00043027
1818.544,-0.000408392
1816.616,-0.000366132
1814.687,-0.000362356
1812.759,-0.000396392
1810.83,-0.000419512
1808.902,-0.000425047
1806.973,-0.00042065
1805.045,-0.000405289
1803.116,-0.000400582
1801.188,-0.000416823
1799.26,-0.000422099
1797.331,-0.000407927
1795.403,-0.000410823
1793.474,-0.00043596
1791.546,-0.000460578
1789.617,-0.00046999
1787.689,-0.000454941
1785.76,-0.000431926
1783.832,-0.000436839
1781.903,-0.00047511
1779.975,-0.000510637
1778.046,-0.000515239
1776.118,-0.00049833
1774.189,-0.000482195
1772.261,-0.000476351
1770.333,-0.000477799
1768.404,-0.000474438
1766.476,-0.000458768
1764.547,-0.000444649
1762.619,-0.000441701
1760.69,-0.000444752
1758.762,-0.000451993
1756.833,-0.000459285
1754.905,-0.000461043
1752.976,-0.000459647
1751.048,-0.000467715
1749.119,-0.000481006
1747.191,-0.00047723
1745.262,-0.000462284
1743.334,-0.000456596
1741.406,-0.000462957
1739.477,-0.000472835
1737.549,-0.000479454
1735.62,-0.000478109
1733.692,-0.000468542
1731.763,-0.00046849
1729.835,-0.000486074
1727.906,-0.000500501
1725.978,-0.000495485
1724.049,-0.000476144
1722.121,-0.000463526
1720.192,-0.000473145
1718.264,-0.000489435
1716.335,-0.000482816
1714.407,-0.000452562
1712.479,-0.000417392
1710.55,-0.000383461
1708.622,-0.000344354
1706.693,-0.000286463
1704.765,-0.000189496
1702.836,-3.91E-05
1700.908,0.000176319
1698.979,0.000466975
1697.051,0.000832488
1695.122,0.001281069
1693.194,0.001816017
1691.265,0.002419949
1689.337,0.00309563
1687.408,0.003850002
1685.48,0.004659923
1683.552,0.005493221
1681.623,0.00633298
1679.695,0.007171944
1677.766,0.007983845
1675.838,0.008764434
1673.909,0.009561695
1671.981,0.01039611
1670.052,0.01124613
1668.124,0.01210615
1666.195,0.0129815
1664.267,0.01386418
1662.338,0.01471711
1660.41,0.01546586
1658.481,0.01605908
1656.553,0.01649055
1654.625,0.01673933
1652.696,0.01679314
1650.768,0.01668037
1648.839,0.01641643
1646.911,0.01602186
1644.982,0.01558283
1643.054,0.01518271
1641.125,0.01482078
1639.197,0.01445902
1637.268,0.01407806
1635.34,0.01368216
1633.411,0.01327939
1631.483,0.01287016
1629.554,0.0124631
1627.626,0.01205472
1625.698,0.01162695
1623.769,0.01119258
1621.841,0.01078372
1619.912,0.01041387
1617.984,0.0100654
1616.055,0.009700221
1614.127,0.009296017
1612.198,0.008856204
1610.27,0.008396568
1608.341,0.007944429
1606.413,0.007517729
1604.484,0.007122865
1602.556,0.006774818
1600.627,0.006473973
1598.699,0.00620776
1596.771,0.005974804
1594.842,0.00577644
1592.914,0.005629536
1590.985,0.005552419
1589.057,0.005534171
1587.128,0.005566997
1585.2,0.005654974
1583.271,0.00579016
1581.343,0.005961262
1579.414,0.00617142
1577.486,0.006435141
1575.557,0.006755782
1573.629,0.007117919
1571.7,0.007508063
1569.772,0.007938392
1567.844,0.00843035
1565.915,0.008978251
1563.987,0.009576488
1562.058,0.01023709
1560.13,0.01095709
1558.201,0.01171071
1556.273,0.01245815
1554.344,0.01315869
1552.416,0.01377359
1550.487,0.01425236
1548.559,0.01455069
1546.63,0.01465183
1544.702,0.01456378
1542.773,0.01431252
1540.845,0.01394156
1538.917,0.01349747
1536.988,0.0130019
1535.06,0.01246883
1533.131,0.01193269
1531.203,0.01141527
1529.274,0.01090979
1527.346,0.01041743
1525.417,0.009960637
1523.489,0.009561245
1521.56,0.009226073
1519.632,0.008932853
1517.703,0.008611815
1515.775,0.008185435
1513.846,0.00764878
1511.918,0.007070451
1509.99,0.006514097
1508.061,0.005996036
1506.133,0.005523579
1504.204,0.005113315
1502.276,0.004749077
1500.347,0.004402926
1498.419,0.004081037
1496.49,0.003794691
1494.562,0.00353536
1492.633,0.003299476
1490.705,0.003099306
1488.776,0.002949031
1486.848,0.002849172
1484.919,0.00279714
1482.991,0.00280493
1481.063,0.002879607
1479.134,0.003006711
1477.206,0.003178362
1475.277,0.003403796
1473.349,0.00367725
1471.42,0.003959653
1469.492,0.004212623
1467.563,0.00443598
1465.635,0.004651917
1463.706,0.004881992
1461.778,0.00514032
1459.849,0.00540871
1457.921,0.005642203
1455.992,0.005807369
1454.064,0.005889045
1452.135,0.005886447
1450.207,0.005819621
1448.279,0.005717447
1446.35,0.005601399
1444.422,0.00548069
1442.493,0.005357184
1440.565,0.005224674
1438.636,0.005072849
1436.708,0.00490914
1434.779,0.00475876
1432.851,0.004645715
1430.922,0.004583972
1428.994,0.00457445
1427.065,0.004607622
1425.137,0.004670494
1423.208,0.004748135
1421.28,0.00481744
1419.352,0.004858327
1417.423,0.004878458
1415.495,0.004893511
1413.566,0.004900369
1411.638,0.004905579
1409.709,0.00492422
1407.781,0.00494671
1405.852,0.004959775
1403.924,0.004964776
1401.995,0.004961582
1400.067,0.00495014
1398.138,0.004930687
1396.21,0.004895657
1394.281,0.004837621
1392.353,0.004762921
1390.425,0.0046824
1388.496,0.004591402
1386.568,0.004478401
1384.639,0.004343099
1382.711,0.004194615
1380.782,0.004044509
1378.854,0.003909604
1376.925,0.003809497
1374.997,0.003751215
1373.068,0.003726358
1371.14,0.003719465
1369.211,0.003711972
1367.283,0.003688815
1365.354,0.003651927
1363.426,0.003622665
1361.498,0.003613425
1359.569,0.003613451
1357.641,0.00361225
1355.712,0.003613216
1353.784,0.003624388
1351.855,0.003643365
1349.927,0.003664562
1347.998,0.00369602
1346.07,0.003741945
1344.141,0.003782679
1342.213,0.003805476
1340.284,0.003816783
1338.356,0.003821353
1336.427,0.003826289
1334.499,0.003839477
1332.571,0.003856949
1330.642,0.003876119
1328.714,0.003904118
1326.785,0.003946748
1324.857,0.004001007
1322.928,0.004058409
1321,0.004107587
1319.071,0.00413811
1317.143,0.00414642
1315.214,0.004138633
1313.286,0.004125122
1311.357,0.004108919
1309.429,0.004079679
1307.5,0.004028545
1305.572,0.003981858
1303.644,0.003975118
1301.715,0.00399317
1299.787,0.004001687
1297.858,0.004003202
1295.93,0.00401697
1294.001,0.004040302
1292.073,0.004058226
1290.144,0.0040715
1288.216,0.004086237
1286.287,0.004093711
1284.359,0.00408825
1282.43,0.004081403
1280.502,0.004080097
1278.573,0.004081639
1276.645,0.004086865
1274.717,0.004097447
1272.788,0.00411182
1270.86,0.004132439
1268.931,0.004162389
1267.003,0.004193987
1265.074,0.004217355
1263.146,0.004238632
1261.217,0.004269321
1259.289,0.004312483
1257.36,0.004364331
1255.432,0.004418354
1253.503,0.004472856
1251.575,0.004526004
1249.646,0.004566811
1247.718,0.004587112
1245.79,0.00458944
1243.861,0.004566052
1241.933,0.004501783
1240.004,0.004399186
1238.076,0.004270001
1236.147,0.004123867
1234.219,0.003968927
1232.29,0.003804353
1230.362,0.003635012
1228.433,0.003482672
1226.505,0.003352194
1224.576,0.003229552
1222.648,0.003114506
1220.719,0.003014244
1218.791,0.002931361
1216.863,0.002865978
1214.934,0.002819781
1213.006,0.002795707
1211.077,0.002784895
1209.149,0.002772416
1207.22,0.002750351
1205.292,0.002717503
1203.363,0.002672858
1201.435,0.002618191
1199.506,0.002567203
1197.578,0.002533483
1195.649,0.002516013
1193.721,0.002507629
1191.792,0.002504791
1189.864,0.002503333
1187.936,0.00249784
1186.007,0.002492815
1184.079,0.00250526
1182.15,0.00254934
1180.222,0.002622957
1178.293,0.002717841
1176.365,0.002828666
1174.436,0.002939075
1172.508,0.003034993
1170.579,0.003130541
1168.651,0.003240219
1166.722,0.003356655
1164.794,0.003470147
1162.865,0.003565347
1160.937,0.003629765
1159.009,0.003670018
1157.08,0.003694767
1155.152,0.003712312
1153.223,0.003733146
1151.295,0.003754243
1149.366,0.003766568
1147.438,0.003773331
1145.509,0.003785682
1143.581,0.003803308
1141.652,0.003820282
1139.724,0.003843917
1137.795,0.003885548
1135.867,0.003945651
1133.938,0.004025619
1132.01,0.004126271
1130.082,0.004228333
1128.153,0.004309581
1126.225,0.004365795
1124.296,0.004406535
1122.368,0.004444375
1120.439,0.004482638
1118.511,0.004511931
1116.582,0.004525403
1114.654,0.004533877
1112.725,0.004559853
1110.797,0.004614817
1108.868,0.004680751
1106.94,0.004728717
1105.011,0.004765591
1103.083,0.004816995
1101.155,0.004883379
1099.226,0.004956424
1097.298,0.005039223
1095.369,0.005133012
1093.441,0.005237092
1091.512,0.00535818
1089.584,0.005504467
1087.655,0.005672362
1085.727,0.00585079
1083.798,0.006030629
1081.87,0.006199856
1079.941,0.006337734
1078.013,0.006427522
1076.084,0.006460021
1074.156,0.006433486
1072.228,0.006366444
1070.299,0.006290535
1068.371,0.006232523
1066.442,0.006212198
1064.514,0.00623289
1062.585,0.006283313
1060.657,0.006358038
1058.728,0.006460678
1056.8,0.006589282
1054.871,0.006738299
1052.943,0.006899675
1051.014,0.007039748
1049.086,0.007123024
1047.157,0.007152865
1045.229,0.007129523
1043.301,0.007037511
1041.372,0.006893836
1039.444,0.006731437
1037.515,0.006568126
1035.587,0.00641859
1033.658,0.00628896
1031.73,0.0061637
1029.801,0.006034225
1027.873,0.005913737
1025.944,0.00581141
1024.016,0.005721277
1022.087,0.005634047
1020.159,0.005545288
1018.23,0.00545133
1016.302,0.005351654
1014.374,0.005257084
1012.445,0.005173719
1010.517,0.005091838
1008.588,0.00500078
1006.66,0.004894427
1004.731,0.004777892
1002.803,0.004674707
1000.874,0.004590669
998.946,0.004512795
997.017,0.004440479
995.089,0.004362683
993.16,0.004268877
991.232,0.004175535
989.303,0.004087544
987.375,0.003984183
985.447,0.003855747
983.518,0.003712468
981.59,0.003562189
979.661,0.00340591
977.733,0.003247574
975.804,0.003096856
973.876,0.002961776
971.947,0.00283445
970.019,0.002711381
968.09,0.002607983
966.162,0.002523277
964.233,0.002432808
962.305,0.002332079
960.376,0.002242378
958.448,0.002174264
956.52,0.002118827
954.591,0.002062046
952.663,0.002007196
950.734,0.00197833
948.806,0.00197859
946.877,0.001984857
944.949,0.001987562
943.02,0.001993829
941.092,0.002001656
939.163,0.002007612
937.235,0.002020043
935.306,0.002032916
933.378,0.002029249
931.449,0.002016532
929.521,0.002005817
927.593,0.001992217
925.664,0.00197547
923.736,0.001955239
921.807,0.001925311
919.879,0.001883789
917.95,0.001823607
916.022,0.00174394
914.093,0.001671979
912.165,0.00162739
910.236,0.001600186
908.308,0.001586105
906.379,0.001595795
904.451,0.00163004
902.522,0.001658675
900.594,0.001649814
898.666,0.001616789
896.737,0.001582753
894.809,0.00154329
892.88,0.001498974
890.952,0.001466792
889.023,0.001460844
887.095,0.001470376
885.166,0.001462766
883.238,0.001437572
881.309,0.001426327
879.381,0.001421756
877.452,0.001400356
875.524,0.001389865
873.595,0.001414614
871.667,0.00144191
869.739,0.001461389
867.81,0.001502065
865.882,0.001543109
863.953,0.0015442
862.025,0.001527366
860.096,0.001535004
858.168,0.001557839
856.239,0.00155589
854.311,0.001543628
852.382,0.001557033
850.454,0.0015714
848.525,0.001568568
846.597,0.001554279
844.668,0.001518768
842.74,0.001488246
840.812,0.001493831
838.883,0.001526743
836.955,0.001575141
835.026,0.001619855
833.098,0.001638745
831.169,0.00162991
829.241,0.001596289
827.312,0.00155298
825.384,0.001540433
823.455,0.001572205
821.527,0.001619231
819.598,0.001669277
817.67,0.00169742
815.741,0.001673486
813.813,0.001651451
811.885,0.001690845
809.956,0.001769671
808.028,0.001820514
806.099,0.001814015
804.171,0.001791842
802.242,0.001776845
800.314,0.0017606
798.385,0.001751581
796.457,0.001766136
794.528,0.001786878
792.6,0.001772374
790.671,0.001772634
788.743,0.001838736
786.814,0.001889613
784.886,0.001880331
782.958,0.00187287
781.029,0.001910205
779.101,0.001953653
777.172,0.001952873
775.244,0.001940288
773.315,0.001956747
771.387,0.001998354
769.458,0.002068106
767.53,0.002137375
765.601,0.002140522
763.673,0.002069146
761.744,0.002006961
759.816,0.002020459
757.887,0.002063788
755.959,0.002084024
754.031,0.002096301
752.102,0.00215046
750.174,0.002242378
748.245,0.002256117
746.317,0.002176371
744.388,0.002112922
742.46,0.002084024
740.531,0.002071097
738.603,0.002059653
736.674,0.002047507
734.746,0.002059445
732.817,0.002034581
730.889,0.001959634
728.96,0.001947958
727.032,0.00197833
725.104,0.001857714
723.175,0.001561086
721.247,0.001414017
719.318,0.001584832
717.39,0.001753011
715.461,0.001801044
713.533,0.001952379
711.604,0.002149497
709.676,0.002239152
707.747,0.002274592
705.819,0.002356543
703.89,0.002522522
701.962,0.002631577
700.033,0.002544992
698.105,0.002320367
696.177,0.001954875
694.248,0.00148809
692.32,0.001228965
690.391,0.001166511
688.463,0.00092667
686.534,0.000507299
684.606,0.000156871
682.677,5.77E-05
680.749,0.000129113
678.82,9.48E-05
676.892,0.0001454
674.963,0.000629563
673.035,0.001002814
671.106,-0.000427684
669.178,-0.003658542
667.25,-0.003945322
665.321,-0.000234981
663.393,0.001914599
661.464,0.001676761
659.536,0.00141503
657.607,0.001968163
655.679,0.002759
653.75,0.003111899
651.822,0.002647829
649.893,0.001690975
647.965,0.00111847
646.036,0.001209834
644.108,0.001371921
642.179,0.001429002
640.251,0.001323701
638.323,0.001433287
636.394,0.003224467
634.466,0.005787878
632.537,0.00633009
630.609,0.005144302
628.68,0.00441438
626.752,0.004582978
624.823,0.005200886
622.895,0.006636119
620.966,0.007691647
619.038,0.006775791
617.109,0.0058404
615.181,0.006726258
613.252,0.007341853
611.324,0.005355349
609.396,0.003639658
607.467,0.004892856
605.539,0.006862461
603.61,0.009149901
601.682,0.01269173
599.753,0.01495756
597.825,0.01392164
595.896,0.0115407
593.968,0.008997702
592.039,0.006161338
590.111,0.00746374
588.182,0.01476622
586.254,0.02009192
584.325,0.01870688
582.397,0.01643256
580.469,0.01767811
578.54,0.01934521
576.612,0.01715077
574.683,0.0118641
572.755,0.009196009
570.826,0.01254425
568.898,0.01830161
566.969,0.01934607
565.041,0.01574648
563.112,0.01552759
561.184,0.02063849
559.255,0.02423991
557.327,0.01993384
555.398,0.01154897
553.47,0.009186808
551.542,0.01303415
549.613,0.01559721
547.685,0.01542181
545.756,0.01448977
543.828,0.01350439
541.899,0.01521191
539.971,0.02015738
538.042,0.02281846
536.114,0.02045402
534.185,0.01620032
532.257,0.01440702
530.328,0.01694003
528.4,0.01976909
526.471,0.02037636
524.543,0.02082078
522.615,0.01976427
520.686,0.01818526
518.758,0.02039047
516.829,0.02419634
514.901,0.0258566
512.972,0.02595983
511.044,0.02525319
509.115,0.02253975
507.187,0.01921261
505.258,0.01953489
503.33,0.02165506
501.401,0.01909758
499.473,0.0137772
497.544,0.01366523
495.616,0.01731542
493.688,0.01639879
491.759,0.01216205
489.831,0.01219149
487.902,0.01534865
485.974,0.01683967
484.045,0.01725128
482.117,0.01649614
480.188,0.0151101
478.26,0.01624844
476.331,0.01902633
474.403,0.02007704
472.474,0.01833933
470.546,0.01643342
468.617,0.01672336
466.689,0.01832273
464.76,0.01998864
462.832,0.02010201
460.904,0.01843798
458.975,0.01727547
457.047,0.01809837
455.118,0.01970648
453.19,0.02112151
451.261,0.02411831
449.333,0.02640268
447.404,0.02370444
445.476,0.01999805
443.547,0.02000241
441.619,0.02088667
439.69,0.02019366
437.762,0.01987422
435.833,0.01999084
433.905,0.01849155
431.977,0.01626282
430.048,0.01620701
428.12,0.01839801
426.191,0.02048658
424.263,0.02165517
422.334,0.02184571
420.406,0.02008799
418.477,0.017991
416.549,0.01967428
414.62,0.02400493
412.692,0.02519169
410.763,0.02156188
408.835,0.01710583
406.906,0.01548246
404.978,0.01484545
403.05,0.01481783
401.121,0.01779123
399.193,0.02003526
