Wavenumbers [1/cm],Absorbance
3997.712,-0.000344172
3995.783,-0.000348065
3993.855,-0.000347351
3991.926,-0.000341462
3989.998,-0.000348323
3988.069,-0.000370224
3986.141,-0.000379138
3984.212,-0.000366617
3982.284,-0.000352779
3980.355,-0.000343537
3978.427,-0.000327602
3976.499,-0.000315103
3974.57,-0.000323263
3972.642,-0.000338404
3970.713,-0.000342003
3968.785,-0.000339207
3966.856,-0.000335231
3964.928,-0.000330313
3962.999,-0.00032777
3961.071,-0.000323274
3959.142,-0.000315628
3957.214,-0.000316438
3955.285,-0.000326453
3953.357,-0.00033657
3951.428,-0.0003468
3949.5,-0.000357465
3947.572,-0.000365586
3945.643,-0.000372944
3943.715,-0.000377884
3941.786,-0.00037008
3939.858,-0.000355408
3937.929,-0.000353122
3936.001,-0.000360032
3934.072,-0.000366368
3932.144,-0.000372476
3930.215,-0.000378354
3928.287,-0.000385173
3926.358,-0.000385523
3924.43,-0.000373581
3922.501,-0.000363355
3920.573,-0.00036278
3918.645,-0.00036648
3916.716,-0.000369098
3914.788,-0.000367185
3912.859,-0.000366296
3910.931,-0.000372958
3909.002,-0.000380837
3907.074,-0.000383011
3905.145,-0.000380377
3903.217,-0.000373602
3901.288,-0.000362777
3899.36,-0.000355136
3897.431,-0.000355758
3895.503,-0.000354348
3893.574,-0.000346477
3891.646,-0.000342355
3889.718,-0.000347147
3887.789,-0.000362018
3885.861,-0.000378027
3883.932,-0.000378272
3882.004,-0.00037162
3880.075,-0.000377599
3878.147,-0.000385741
3876.218,-0.00037865
3874.29,-0.000366364
3872.361,-0.000371927
3870.433,-0.000395538
3868.504,-0.000410775
3866.576,-0.000404352
3864.647,-0.000391208
3862.719,-0.000381445
3860.791,-0.000376005
3858.862,-0.000374342
3856.934,-0.00037589
3855.005,-0.000385638
3853.077,-0.00039701
3851.148,-0.000395348
3849.22,-0.000383856
3847.291,-0.000377835
3845.363,-0.000388041
3843.434,-0.000406761
3841.506,-0.000420065
3839.577,-0.000430488
3837.649,-0.000439166
3835.72,-0.000438971
3833.792,-0.000431351
3831.864,-0.000418976
3829.935,-0.000406851
3828.007,-0.000402409
3826.078,-0.000398903
3824.15,-0.00038835
3822.221,-0.000381312
3820.293,-0.000386732
3818.364,-0.000397216
3816.436,-0.000410764
3814.507,-0.000430024
3812.579,-0.000442973
3810.65,-0.000442368
3808.722,-0.000440888
3806.793,-0.000442751
3804.865,-0.000434038
3802.937,-0.000418961
3801.008,-0.000415957
3799.08,-0.000426946
3797.151,-0.000437343
3795.223,-0.000429821
3793.294,-0.00041363
3791.366,-0.000413068
3789.437,-0.000423229
3787.509,-0.000431717
3785.58,-0.000434554
3783.652,-0.000430259
3781.723,-0.000428858
3779.795,-0.000432254
3777.866,-0.000437323
3775.938,-0.000447206
3774.01,-0.000459296
3772.081,-0.000473872
3770.153,-0.000476917
3768.224,-0.000451638
3766.296,-0.000431127
3764.367,-0.000446916
3762.439,-0.000471911
3760.51,-0.000476389
3758.582,-0.000468446
3756.653,-0.000456423
3754.725,-0.000435292
3752.796,-0.000422861
3750.868,-0.000437693
3748.939,-0.000451338
3747.011,-0.00043896
3745.083,-0.000429493
3743.154,-0.000444103
3741.226,-0.000454596
3739.297,-0.000442948
3737.369,-0.000420759
3735.44,-0.000394419
3733.512,-0.000363402
3731.583,-0.000331681
3729.655,-0.000310304
3727.726,-0.000311041
3725.798,-0.000333344
3723.869,-0.000364773
3721.941,-0.000399067
3720.012,-0.000439975
3718.084,-0.000488703
3716.156,-0.000538091
3714.227,-0.000562838
3712.299,-0.000549314
3710.37,-0.000527432
3708.442,-0.000524765
3706.513,-0.000533893
3704.585,-0.000542529
3702.656,-0.00056211
3700.728,-0.000601266
3698.799,-0.000636421
3696.871,-0.000656277
3694.942,-0.000683608
3693.014,-0.000732379
3691.085,-0.000795928
3689.157,-0.000857637
3687.229,-0.000911342
3685.3,-0.000965692
3683.372,-0.001020052
3681.443,-0.00106942
3679.515,-0.001118315
3677.586,-0.001174999
3675.658,-0.001231232
3673.729,-0.001280777
3671.801,-0.001333637
3669.872,-0.001382809
3667.944,-0.001432633
3666.015,-0.001492951
3664.087,-0.001539952
3662.158,-0.001570338
3660.23,-0.001599509
3658.302,-0.001635454
3656.373,-0.001688052
3654.445,-0.001753141
3652.516,-0.001814875
3650.588,-0.00185582
3648.659,-0.001882548
3646.731,-0.001926632
3644.802,-0.001978764
3642.874,-0.001996265
3640.945,-0.001988053
3639.017,-0.001990857
3637.088,-0.001991934
3635.16,-0.001969517
3633.231,-0.001951832
3631.303,-0.001969947
3629.375,-0.002010513
3627.446,-0.002047254
3625.518,-0.002059757
3623.589,-0.002047686
3621.661,-0.00204559
3619.732,-0.002073336
3617.804,-0.002115134
3615.875,-0.002140989
3613.947,-0.002140384
3612.018,-0.002139099
3610.09,-0.002139493
3608.161,-0.002116519
3606.233,-0.002087781
3604.304,-0.002088935
3602.376,-0.00209976
3600.448,-0.002105252
3598.519,-0.002141689
3596.591,-0.002190755
3594.662,-0.002194198
3592.734,-0.002171483
3590.805,-0.002168237
3588.877,-0.002180631
3586.948,-0.00221334
3585.02,-0.002255184
3583.091,-0.002245443
3581.163,-0.002209139
3579.234,-0.002234813
3577.306,-0.002296646
3575.377,-0.002292727
3573.449,-0.002232657
3571.521,-0.002218753
3569.592,-0.002261844
3567.664,-0.002314043
3565.735,-0.002361895
3563.807,-0.002370976
3561.878,-0.0023428
3559.95,-0.00233025
3558.021,-0.002324942
3556.093,-0.00229586
3554.164,-0.002270932
3552.236,-0.002296226
3550.307,-0.002361696
3548.379,-0.002398625
3546.45,-0.00237243
3544.522,-0.00233542
3542.594,-0.002346387
3540.665,-0.002409433
3538.737,-0.002496141
3536.808,-0.002560865
3534.88,-0.002572411
3532.951,-0.002561422
3531.023,-0.002554938
3529.094,-0.002545479
3527.166,-0.002565939
3525.237,-0.002640626
3523.309,-0.002719282
3521.38,-0.00274929
3519.452,-0.002735429
3517.523,-0.002716651
3515.595,-0.002756999
3513.667,-0.002892402
3511.738,-0.003014915
3509.81,-0.00301921
3507.881,-0.00298198
3505.953,-0.002972706
3504.024,-0.002955085
3502.096,-0.002945007
3500.167,-0.002993992
3498.239,-0.003088698
3496.31,-0.003184868
3494.382,-0.003234324
3492.453,-0.003254878
3490.525,-0.003325633
3488.596,-0.003435704
3486.668,-0.003512902
3484.74,-0.003544642
3482.811,-0.003593667
3480.883,-0.003690062
3478.954,-0.003746116
3477.026,-0.003731958
3475.097,-0.00376634
3473.169,-0.003875394
3471.24,-0.003923657
3469.312,-0.003909786
3467.383,-0.003969916
3465.455,-0.00408794
3463.526,-0.004164077
3461.598,-0.0041716
3459.669,-0.004167015
3457.741,-0.004256369
3455.813,-0.004403215
3453.884,-0.004468482
3451.956,-0.00449139
3450.027,-0.004575929
3448.099,-0.004669771
3446.17,-0.004732606
3444.242,-0.004831348
3442.313,-0.004945327
3440.385,-0.005005801
3438.456,-0.00506055
3436.528,-0.005175033
3434.599,-0.005349235
3432.671,-0.00551248
3430.742,-0.00556883
3428.814,-0.005580749
3426.885,-0.00568047
3424.957,-0.005858894
3423.029,-0.00602126
3421.1,-0.006095789
3419.172,-0.00609628
3417.243,-0.006092191
3415.315,-0.006101051
3413.386,-0.006120021
3411.458,-0.006227307
3409.529,-0.006444111
3407.601,-0.006639993
3405.672,-0.006778749
3403.744,-0.006923435
3401.815,-0.007054836
3399.887,-0.007170201
3397.958,-0.007277022
3396.03,-0.007302676
3394.102,-0.007246935
3392.173,-0.007220786
3390.245,-0.007268633
3388.316,-0.007394702
3386.388,-0.007588125
3384.459,-0.007728612
3382.531,-0.007697743
3380.602,-0.007547178
3378.674,-0.007446563
3376.745,-0.007471225
3374.817,-0.007595418
3372.888,-0.007772776
3370.96,-0.007889261
3369.031,-0.00789615
3367.103,-0.007798516
3365.175,-0.007654594
3363.246,-0.007666962
3361.318,-0.007826146
3359.389,-0.007914551
3357.461,-0.007902187
3355.532,-0.00785336
3353.604,-0.007803103
3351.675,-0.007752144
3349.747,-0.007595407
3347.818,-0.007371737
3345.89,-0.007312288
3343.961,-0.007423177
3342.033,-0.007575012
3340.104,-0.00766609
3338.176,-0.007583639
3336.248,-0.007441989
3334.319,-0.007422763
3332.391,-0.007465166
3330.462,-0.007410389
3328.534,-0.007277192
3326.605,-0.007266231
3324.677,-0.007364113
3322.748,-0.00737416
3320.82,-0.007269585
3318.891,-0.007121276
3316.963,-0.006995303
3315.034,-0.006969509
3313.106,-0.006953051
3311.177,-0.006753769
3309.249,-0.006470391
3307.321,-0.006298508
3305.392,-0.00625353
3303.464,-0.00631152
3301.535,-0.006287663
3299.607,-0.006101912
3297.678,-0.00597415
3295.75,-0.005935952
3293.821,-0.005915648
3291.893,-0.005935694
3289.964,-0.005883891
3288.036,-0.005719447
3286.107,-0.005635834
3284.179,-0.005695922
3282.25,-0.005699694
3280.322,-0.005564544
3278.394,-0.005488176
3276.465,-0.005604879
3274.537,-0.005802704
3272.608,-0.00591709
3270.68,-0.005870106
3268.751,-0.005753488
3266.823,-0.005829321
3264.894,-0.006142621
3262.966,-0.006320917
3261.037,-0.006191819
3259.109,-0.006095175
3257.18,-0.006190575
3255.252,-0.006229595
3253.323,-0.006190536
3251.395,-0.006247231
3249.467,-0.006342863
3247.538,-0.006381745
3245.61,-0.006411646
3243.681,-0.0065283
3241.753,-0.00675123
3239.824,-0.006912935
3237.896,-0.00685931
3235.967,-0.00668539
3234.039,-0.006581796
3232.11,-0.006550611
3230.182,-0.00646517
3228.253,-0.006377198
3226.325,-0.006389661
3224.396,-0.006432796
3222.468,-0.006429442
3220.54,-0.006391542
3218.611,-0.006352857
3216.683,-0.006302696
3214.754,-0.00623899
3212.826,-0.006200228
3210.897,-0.006174336
3208.969,-0.006121307
3207.04,-0.006015775
3205.112,-0.005891107
3203.183,-0.005856118
3201.255,-0.005957127
3199.326,-0.006059813
3197.398,-0.005998836
3195.469,-0.005814456
3193.541,-0.005599093
3191.613,-0.005333899
3189.684,-0.005102678
3187.756,-0.005046644
3185.827,-0.005093176
3183.899,-0.005072914
3181.97,-0.004980036
3180.042,-0.004924549
3178.113,-0.004949319
3176.185,-0.004988784
3174.256,-0.004940947
3172.328,-0.004818599
3170.399,-0.00471533
3168.471,-0.004633549
3166.542,-0.004589483
3164.614,-0.004639378
3162.686,-0.00468926
3160.757,-0.004593415
3158.829,-0.004380442
3156.9,-0.004205741
3154.972,-0.004124622
3153.043,-0.004068719
3151.115,-0.004002309
3149.186,-0.003939956
3147.258,-0.003877187
3145.329,-0.003804442
3143.401,-0.00372337
3141.472,-0.003634015
3139.544,-0.003561589
3137.615,-0.003517324
3135.687,-0.003460581
3133.759,-0.00339229
3131.83,-0.003328112
3129.902,-0.00322638
3127.973,-0.003086931
3126.045,-0.002981064
3124.116,-0.002946799
3122.188,-0.002959396
3120.259,-0.002944629
3118.331,-0.002814709
3116.402,-0.00259279
3114.474,-0.002396197
3112.545,-0.002251631
3110.617,-0.002104615
3108.688,-0.001956033
3106.76,-0.001855514
3104.832,-0.001818115
3102.903,-0.001785099
3100.975,-0.001688431
3099.046,-0.00154403
3097.118,-0.001423353
3095.189,-0.001332376
3093.261,-0.001200666
3091.332,-0.001017333
3089.404,-0.000856687
3087.475,-0.000759677
3085.547,-0.000692602
3083.618,-0.000615796
3081.69,-0.000523512
3079.761,-0.000418819
3077.833,-0.000309077
3075.905,-0.00020929
3073.976,-0.00011198
3072.048,-1.12E-06
3070.119,0.000118993
3068.191,0.000240631
3066.262,0.000354576
3064.334,0.000447776
3062.405,0.000527946
3060.477,0.000588145
3058.548,0.000612249
3056.62,0.000626788
3054.691,0.000637059
3052.763,0.000625714
3050.834,0.000616863
3048.906,0.000641962
3046.978,0.000698782
3045.049,0.000741025
3043.121,0.00072977
3041.192,0.000679094
3039.264,0.00064039
3037.335,0.00065752
3035.407,0.000710854
3033.478,0.000761633
3031.55,0.000809603
3029.621,0.000848094
3027.693,0.000854073
3025.764,0.000829159
3023.836,0.000795247
3021.907,0.000770005
3019.979,0.000758143
3018.051,0.00075189
3016.122,0.00075618
3014.194,0.000781519
3012.265,0.000803789
3010.337,0.00080411
3008.408,0.000816281
3006.48,0.000868822
3004.551,0.000931767
3002.623,0.000969124
3000.694,0.000995792
2998.766,0.001051624
2996.837,0.001142155
2994.909,0.001237098
2992.98,0.001323887
2991.052,0.001406342
2989.124,0.001487353
2987.195,0.001581673
2985.267,0.00169284
2983.338,0.001812384
2981.41,0.001945164
2979.481,0.002084618
2977.553,0.002215639
2975.624,0.002344538
2973.696,0.002471938
2971.767,0.002596282
2969.839,0.002720598
2967.91,0.002814341
2965.982,0.002868206
2964.053,0.002917951
2962.125,0.002969978
2960.197,0.003007996
2958.268,0.003022823
2956.34,0.003009573
2954.411,0.002976281
2952.483,0.002937242
2950.554,0.002908291
2948.626,0.002905928
2946.697,0.002930549
2944.769,0.002974135
2942.84,0.003032152
2940.912,0.003090678
2938.983,0.003131194
2937.055,0.003150073
2935.126,0.003153069
2933.198,0.00314697
2931.27,0.003138215
2929.341,0.003113702
2927.413,0.003064914
2925.484,0.003015337
2923.556,0.002968704
2921.627,0.002907592
2919.699,0.002835629
2917.77,0.002761942
2915.842,0.002688917
2913.913,0.002616458
2911.985,0.002547883
2910.056,0.002489527
2908.128,0.002438465
2906.199,0.002390491
2904.271,0.002356535
2902.343,0.002334864
2900.414,0.002303873
2898.486,0.002272139
2896.557,0.002258017
2894.629,0.002248959
2892.7,0.002235217
2890.772,0.002223263
2888.843,0.002223435
2886.915,0.002242558
2884.986,0.002275769
2883.058,0.002315393
2881.129,0.002357654
2879.201,0.002392548
2877.272,0.002400027
2875.344,0.002368626
2873.416,0.002308133
2871.487,0.002242595
2869.559,0.002184808
2867.63,0.002119578
2865.702,0.002035739
2863.773,0.001948156
2861.845,0.001880649
2859.916,0.001835544
2857.988,0.001797654
2856.059,0.001763437
2854.131,0.001732815
2852.202,0.001691045
2850.274,0.0016363
2848.345,0.001585944
2846.417,0.001540529
2844.489,0.001489297
2842.56,0.001445127
2840.632,0.001427685
2838.703,0.001430186
2836.775,0.001428151
2834.846,0.001409506
2832.918,0.001374597
2830.989,0.001329452
2829.061,0.00129155
2827.132,0.001269331
2825.204,0.001253935
2823.275,0.001240573
2821.347,0.00123053
2819.418,0.001220693
2817.49,0.001212111
2815.562,0.001213029
2813.633,0.001217733
2811.705,0.001210195
2809.776,0.001188283
2807.848,0.00116113
2805.919,0.001136225
2803.991,0.001116938
2802.062,0.001105405
2800.134,0.001099421
2798.205,0.001092137
2796.277,0.001077402
2794.348,0.001053188
2792.42,0.001027994
2790.491,0.001009943
2788.563,0.000995843
2786.635,0.000983481
2784.706,0.000973305
2782.778,0.000965034
2780.849,0.000960572
2778.921,0.000955558
2776.992,0.000941287
2775.064,0.000919305
2773.135,0.000901402
2771.207,0.000893246
2769.278,0.000885766
2767.35,0.000867466
2765.421,0.000841062
2763.493,0.000821586
2761.564,0.00081297
2759.636,0.000807466
2757.708,0.00080768
2755.779,0.000808062
2753.851,0.000792141
2751.922,0.000765442
2749.994,0.000744266
2748.065,0.000733022
2746.137,0.000728146
2744.208,0.000717987
2742.28,0.000699902
2740.351,0.000685639
2738.423,0.000680881
2736.494,0.000682221
2734.566,0.000680419
2732.637,0.000668584
2730.709,0.000653903
2728.781,0.000638983
2726.852,0.000617959
2724.924,0.000596339
2722.995,0.000584902
2721.067,0.000577308
2719.138,0.000564354
2717.21,0.000553382
2715.281,0.000554574
2713.353,0.000563541
2711.424,0.000561613
2709.496,0.000547213
2707.567,0.000537991
2705.639,0.00053157
2703.71,0.000518867
2701.782,0.000507189
2699.854,0.000502374
2697.925,0.000504527
2695.997,0.000507308
2694.068,0.000498359
2692.14,0.000484018
2690.211,0.000481019
2688.283,0.000485541
2686.354,0.000482464
2684.426,0.000469939
2682.497,0.000461158
2680.569,0.000461474
2678.64,0.00046026
2676.712,0.000454651
2674.783,0.00045347
2672.855,0.000453329
2670.927,0.000441843
2668.998,0.000427585
2667.07,0.000428767
2665.141,0.000434766
2663.213,0.000428831
2661.284,0.000421366
2659.356,0.000417627
2657.427,0.00040472
2655.499,0.000382208
2653.57,0.000365358
2651.642,0.000358175
2649.713,0.000353761
2647.785,0.000355414
2645.856,0.00036539
2643.928,0.000370312
2642,0.000364908
2640.071,0.000355284
2638.143,0.000336592
2636.214,0.000309266
2634.286,0.000288358
2632.357,0.000271202
2630.429,0.000249769
2628.5,0.00023783
2626.572,0.000237648
2624.643,0.000233616
2622.715,0.000221332
2620.786,0.000207469
2618.858,0.000208431
2616.929,0.000228074
2615.001,0.000244122
2613.073,0.000244868
2611.144,0.000233179
2609.216,0.000208764
2607.287,0.000192582
2605.359,0.000208564
2603.43,0.000232646
2601.502,0.000240651
2599.573,0.000240934
2597.645,0.000224374
2595.716,0.000193829
2593.788,0.000181016
2591.859,0.000192107
2589.931,0.000205146
2588.002,0.000191278
2586.074,0.000145912
2584.146,0.000106343
2582.217,9.73E-05
2580.289,0.000104705
2578.36,0.000113097
2576.432,0.000108232
2574.503,7.80E-05
2572.575,5.16E-05
2570.646,5.60E-05
2568.718,6.55E-05
2566.789,4.59E-05
2564.861,1.85E-06
2562.932,-8.77E-06
2561.004,2.65E-05
2559.075,3.95E-05
2557.147,1.22E-05
2555.219,-2.71E-05
2553.29,-5.43E-05
2551.362,-5.25E-05
2549.433,-4.45E-05
2547.505,-5.11E-05
2545.576,-6.22E-05
2543.648,-6.63E-05
2541.719,-5.95E-05
2539.791,-5.93E-05
2537.862,-8.03E-05
2535.934,-7.86E-05
2534.005,-2.61E-05
2532.077,8.79E-06
2530.148,-1.50E-06
2528.22,-1.24E-05
2526.292,-2.30E-05
2524.363,-4.57E-05
2522.435,-6.79E-05
2520.506,-5.53E-05
2518.578,-1.18E-05
2516.649,-1.95E-05
2514.721,-9.41E-05
2512.792,-0.000146327
2510.864,-0.000136696
2508.935,-9.58E-05
2507.007,-3.75E-05
2505.078,1.65E-05
2503.15,6.95E-06
2501.221,-6.10E-05
2499.293,-9.42E-05
2497.365,-7.59E-05
2495.436,-7.27E-05
2493.508,-9.27E-05
2491.579,-0.00011508
2489.651,-0.000136377
2487.722,-0.000151198
2485.794,-0.000158572
2483.865,-0.000170023
2481.937,-0.000193336
2480.008,-0.000186873
2478.08,-0.000153207
2476.151,-0.000151779
2474.223,-0.000149822
2472.294,-0.000126008
2470.366,-0.000143735
2468.438,-0.000198399
2466.509,-0.000223208
2464.581,-0.00020933
2462.652,-0.000194773
2460.724,-0.000186681
2458.795,-0.000177578
2456.867,-0.000171961
2454.938,-0.000169321
2453.01,-0.000202569
2451.081,-0.000285697
2449.153,-0.000336097
2447.224,-0.000321972
2445.296,-0.000309952
2443.367,-0.000304885
2441.439,-0.000291193
2439.51,-0.000289502
2437.582,-0.000295258
2435.654,-0.000306845
2433.725,-0.000309364
2431.797,-0.000305495
2429.868,-0.000327149
2427.94,-0.000326738
2426.011,-0.000273056
2424.083,-0.000226096
2422.154,-0.000219894
2420.226,-0.000254462
2418.297,-0.00031531
2416.369,-0.000349583
2414.44,-0.00033157
2412.512,-0.000314991
2410.583,-0.000314739
2408.655,-0.00029885
2406.727,-0.000307584
2404.798,-0.000349486
2402.87,-0.000358884
2400.941,-0.000348077
2399.013,-0.000343171
2397.084,-0.000327739
2395.156,-0.000325559
2393.227,-0.000343821
2391.299,-0.000353273
2389.37,-0.00035571
2387.442,-0.000335612
2385.513,-0.000243912
2383.585,-4.51E-05
2381.656,0.000288365
2379.728,0.000769488
2377.8,0.001376922
2375.871,0.002069997
2373.943,0.002791901
2372.014,0.003472427
2370.086,0.004052109
2368.157,0.004512205
2366.229,0.00488078
2364.3,0.005187353
2362.372,0.005429467
2360.443,0.005558963
2358.515,0.00550636
2356.586,0.005229513
2354.658,0.00469086
2352.729,0.003857503
2350.801,0.002952646
2348.873,0.002514798
2346.944,0.002824662
2345.016,0.003509154
2343.087,0.003962905
2341.159,0.004074881
2339.23,0.004031155
2337.302,0.003931972
2335.373,0.003827924
2333.445,0.003749337
2331.516,0.003672545
2329.588,0.003526228
2327.659,0.003312071
2325.731,0.003127163
2323.802,0.002981306
2321.874,0.00276503
2319.946,0.002458861
2318.017,0.002153239
2316.089,0.001879026
2314.16,0.001628636
2312.232,0.001389207
2310.303,0.001135118
2308.375,0.000851953
2306.446,0.000568492
2304.518,0.000348498
2302.589,0.000217957
2300.661,0.00014933
2298.732,9.09E-05
2296.804,-8.52E-06
2294.875,-0.000130584
2292.947,-0.000212771
2291.019,-0.000249995
2289.09,-0.000257348
2287.162,-0.000230647
2285.233,-0.000201387
2283.305,-0.000220134
2281.376,-0.00030049
2279.448,-0.000440522
2277.519,-0.000623562
2275.591,-0.000715344
2273.662,-0.000583665
2271.734,-0.000351418
2269.805,-0.000170613
2267.877,-2.60E-05
2265.948,7.92E-06
2264.02,-0.000191791
2262.092,-0.000527542
2260.163,-0.000786514
2258.235,-0.000847736
2256.306,-0.000795941
2254.378,-0.000774195
2252.449,-0.000684334
2250.521,-0.00050766
2248.592,-0.000492196
2246.664,-0.000606946
2244.735,-0.000558575
2242.807,-0.000402377
2240.878,-0.000426376
2238.95,-0.000587254
2237.021,-0.000744011
2235.093,-0.000902883
2233.165,-0.000965896
2231.236,-0.000945803
2229.308,-0.000977058
2227.379,-0.000996205
2225.451,-0.000996592
2223.522,-0.001124386
2221.594,-0.001197011
2219.665,-0.000984359
2217.737,-0.000791434
2215.808,-0.000829331
2213.88,-0.001066531
2211.951,-0.001680034
2210.023,-0.002420354
2208.094,-0.002416382
2206.166,-0.001464842
2204.238,-0.000585257
2202.309,-0.000456091
2200.381,-0.000474344
2198.452,-0.00020839
2196.524,-0.000338048
2194.595,-0.001385022
2192.667,-0.002429895
2190.738,-0.002277164
2188.81,-0.001404628
2186.881,-0.001023022
2184.953,-0.001309491
2183.024,-0.00173954
2181.096,-0.001745863
2179.167,-0.001112193
2177.239,-0.000491584
2175.311,-0.000956881
2173.382,-0.002218433
2171.454,-0.002916091
2169.525,-0.003053933
2167.597,-0.002982925
2165.668,-0.002709703
2163.74,-0.002654807
2161.811,-0.002947201
2159.883,-0.003893385
2157.954,-0.004246326
2156.026,-0.002138927
2154.097,-7.52E-05
2152.169,-0.000324491
2150.24,-0.001884617
2148.312,-0.002925974
2146.384,-0.002808789
2144.455,-0.002183015
2142.527,-0.001876684
2140.598,-0.001728326
2138.67,-0.0013807
2136.741,-0.001207288
2134.813,-0.001395387
2132.884,-0.001572196
2130.956,-0.00150367
2129.027,-0.001315176
2127.099,-0.001177046
2125.17,-0.001153563
2123.242,-0.001188827
2121.313,-0.00112022
2119.385,-0.000904411
2117.457,-0.000623928
2115.528,-0.000479475
2113.6,-0.000679308
2111.671,-0.001027383
2109.743,-0.001193635
2107.814,-0.001100426
2105.886,-0.00082903
2103.957,-0.00060416
2102.029,-0.000565625
2100.1,-0.000699956
2098.172,-0.000913515
2096.243,-0.000974682
2094.315,-0.00084096
2092.386,-0.000698935
2090.458,-0.000626515
2088.53,-0.000648397
2086.601,-0.00072911
2084.673,-0.000707299
2082.744,-0.00046763
2080.816,-0.00018231
2078.887,-0.000229849
2076.959,-0.00071223
2075.03,-0.001303414
2073.102,-0.001663276
2071.173,-0.001652074
2069.245,-0.001391321
2067.316,-0.001293727
2065.388,-0.001428199
2063.459,-0.001443133
2061.531,-0.001281301
2059.603,-0.000922263
2057.674,-0.000545808
2055.746,-0.000532141
2053.817,-0.000547164
2051.889,-0.000514958
2049.96,-0.000942165
2048.032,-0.00125775
2046.103,-0.000817268
2044.175,-0.000518882
2042.246,-0.000678829
2040.318,-0.000477024
2038.389,0.00030948
2036.461,0.001076312
2034.532,0.001316128
2032.604,0.001295947
2030.676,0.001016969
2028.747,4.60E-05
2026.819,-0.001173296
2024.89,-0.00215531
2022.962,-0.002479421
2021.033,-0.001392822
2019.105,0.000396424
2017.176,0.000966262
2015.248,1.00E-04
2013.319,-0.000784007
2011.391,-0.00132992
2009.462,-0.002079574
2007.534,-0.002747449
2005.605,-0.002682694
2003.677,-0.00200741
2001.749,-0.001247038
1999.82,-0.000949003
1997.892,-0.001484668
1995.963,-0.002347882
1994.035,-0.002845408
1992.106,-0.002817274
1990.178,-0.002197816
1988.249,-0.001534107
1986.321,-0.001538479
1984.392,-0.002104231
1982.464,-0.002644373
1980.535,-0.002515042
1978.607,-0.001816154
1976.678,-0.001363432
1974.75,-0.001351681
1972.822,-0.001350788
1970.893,-0.001390374
1968.965,-0.00184908
1967.036,-0.002170183
1965.108,-0.001935594
1963.179,-0.001822619
1961.251,-0.001919407
1959.322,-0.00163319
1957.394,-0.000870687
1955.465,-0.000454465
1953.537,-0.000952197
1951.608,-0.001540216
1949.68,-0.001594206
1947.751,-0.001581419
1945.823,-0.001757572
1943.895,-0.001783789
1941.966,-0.001351357
1940.038,-0.000795302
1938.109,-0.000687746
1936.181,-0.000869472
1934.252,-0.000921519
1932.324,-0.000995295
1930.395,-0.001253689
1928.467,-0.001372912
1926.538,-0.001067389
1924.61,-0.00060213
1922.681,-0.000419737
1920.753,-0.000381865
1918.824,-0.000247267
1916.896,-0.000259678
1914.968,-0.000516429
1913.039,-0.000813099
1911.111,-0.001017573
1909.182,-0.000995692
1907.254,-0.000773755
1905.325,-0.000635534
1903.397,-0.000697566
1901.468,-0.000814869
1899.54,-0.000845816
1897.611,-0.000741115
1895.683,-0.000580559
1893.754,-0.000482771
1891.826,-0.000481827
1889.897,-0.000554012
1887.969,-0.000634401
1886.041,-0.000644175
1884.112,-0.000574191
1882.184,-0.000516232
1880.255,-0.00053804
1878.327,-0.000594197
1876.398,-0.00063107
1874.47,-0.000635042
1872.541,-0.000608037
1870.613,-0.000586011
1868.684,-0.00060405
1866.756,-0.000638257
1864.827,-0.000669246
1862.899,-0.000671712
1860.97,-0.000607356
1859.042,-0.000557227
1857.114,-0.000576431
1855.185,-0.000586432
1853.257,-0.000578189
1851.328,-0.00057507
1849.4,-0.000547977
1847.471,-0.000526778
1845.543,-0.000553104
1843.614,-0.000563833
1841.686,-0.000526648
1839.757,-0.000516844
1837.829,-0.000546592
1835.9,-0.000558255
1833.972,-0.000552355
1832.043,-0.000567806
1830.115,-0.000611497
1828.187,-0.000638809
1826.258,-0.000613194
1824.33,-0.00057542
1822.401,-0.000569645
1820.473,-0.000572693
1818.544,-0.000565718
1816.616,-0.000562307
1814.687,-0.000569378
1812.759,-0.000575346
1810.83,-0.000568544
1808.902,-0.000557812
1806.973,-0.000548275
1805.045,-0.00053989
1803.116,-0.000544246
1801.188,-0.0005527
1799.26,-0.000550814
1797.331,-0.000555201
1795.403,-0.000582379
1793.474,-0.000619138
1791.546,-0.000642387
1789.617,-0.000638111
1787.689,-0.000611938
1785.76,-0.000585277
1783.832,-0.000580705
1781.903,-0.000601753
1779.975,-0.000627226
1778.046,-0.000640792
1776.118,-0.000645362
1774.189,-0.000644888
1772.261,-0.000639364
1770.333,-0.000631531
1768.404,-0.000622473
1766.476,-0.000606835
1764.547,-0.000593633
1762.619,-0.000593607
1760.69,-0.000599023
1758.762,-0.000598922
1756.833,-0.000588132
1754.905,-0.000576049
1752.976,-0.000573871
1751.048,-0.000585179
1749.119,-0.000606534
1747.191,-0.000618115
1745.262,-0.000611169
1743.334,-0.000603649
1741.406,-0.000605683
1739.477,-0.000602071
1737.549,-0.000592672
1735.62,-0.000595193
1733.692,-0.000596026
1731.763,-0.000588719
1729.835,-0.000593767
1727.906,-0.000602921
1725.978,-0.000595918
1724.049,-0.000582087
1722.121,-0.00058397
1720.192,-0.000599473
1718.264,-0.000609675
1716.335,-0.000613005
1714.407,-0.000606527
1712.479,-0.000573669
1710.55,-0.000520977
1708.622,-0.000466011
1706.693,-0.000399968
1704.765,-0.000306226
1702.836,-0.000174662
1700.908,2.37E-05
1698.979,0.000319257
1697.051,0.000704271
1695.122,0.001162268
1693.194,0.001692886
1691.265,0.002290717
1689.337,0.002959941
1687.408,0.003707204
1685.48,0.004517553
1683.552,0.005369068
1681.623,0.006238551
1679.695,0.007104759
1677.766,0.007947928
1675.838,0.008758262
1673.909,0.009556641
1671.981,0.01036652
1670.052,0.0111973
1668.124,0.01206474
1666.195,0.01296087
1664.267,0.01384527
1662.338,0.01468188
1660.41,0.01541928
1658.481,0.01600011
1656.553,0.01640877
1654.625,0.01664638
1652.696,0.01670288
1650.768,0.01657816
1648.839,0.0162933
1646.911,0.01589827
1644.982,0.01547342
1643.054,0.01507137
1641.125,0.01468396
1639.197,0.01429742
1637.268,0.01391658
1635.34,0.01354472
1633.411,0.01316053
1631.483,0.01274647
1629.554,0.01232693
1627.626,0.01191839
1625.698,0.01150244
1623.769,0.01106769
1621.841,0.01063726
1619.912,0.01024476
1617.984,0.009879988
1616.055,0.009499981
1614.127,0.00909188
1612.198,0.008671143
1610.27,0.008245257
1608.341,0.007820448
1606.413,0.007395061
1604.484,0.006971596
1602.556,0.006592155
1600.627,0.006287025
1598.699,0.006033516
1596.771,0.005806021
1594.842,0.005614267
1592.914,0.005482635
1590.985,0.005407511
1589.057,0.005376308
1587.128,0.005402393
1585.2,0.005491554
1583.271,0.005627658
1581.343,0.005799676
1579.414,0.006013805
1577.486,0.006283038
1575.557,0.006606257
1573.629,0.00697155
1571.7,0.007377281
1569.772,0.007834807
1567.844,0.008350677
1565.915,0.008911421
1563.987,0.009508635
1562.058,0.01015668
1560.13,0.0108691
1558.201,0.01162899
1556.273,0.01238792
1554.344,0.0131025
1552.416,0.01373001
1550.487,0.01420819
1548.559,0.01449709
1546.63,0.01459321
1544.702,0.01450529
1542.773,0.01425664
1540.845,0.01389
1538.917,0.01344734
1536.988,0.01294873
1535.06,0.01241304
1533.131,0.01187247
1531.203,0.01134628
1529.274,0.01083396
1527.346,0.01033731
1525.417,0.009875275
1523.489,0.00947196
1521.56,0.009139704
1519.632,0.00885791
1517.703,0.008547091
1515.775,0.008116486
1513.846,0.00756389
1511.918,0.006969627
1509.99,0.00639952
1508.061,0.005874586
1506.133,0.005403323
1504.204,0.004988309
1502.276,0.004617413
1500.347,0.004278178
1498.419,0.003967216
1496.49,0.003679242
1494.562,0.003408801
1492.633,0.003165875
1490.705,0.002967686
1488.776,0.002819484
1486.848,0.002716734
1484.919,0.002663547
1482.991,0.002672987
1481.063,0.002745464
1479.134,0.002870988
1477.206,0.003056232
1475.277,0.003304765
1473.349,0.003592933
1471.42,0.003886103
1469.492,0.004152175
1467.563,0.004379892
1465.635,0.004594206
1463.706,0.004824033
1461.778,0.005074769
1459.849,0.00533599
1457.921,0.005583049
1455.992,0.005767575
1454.064,0.005843754
1452.135,0.005819183
1450.207,0.005739901
1448.279,0.005637779
1446.35,0.005524224
1444.422,0.00540186
1442.493,0.005269352
1440.565,0.005124555
1438.636,0.004967721
1436.708,0.004805609
1434.779,0.004652824
1432.851,0.00453619
1430.922,0.004476765
1428.994,0.004469835
1427.065,0.004503477
1425.137,0.004568697
1423.208,0.004651712
1421.28,0.004728258
1419.352,0.004773447
1417.423,0.004789542
1415.495,0.004794175
1413.566,0.004790188
1411.638,0.004784702
1409.709,0.004795289
1407.781,0.004820773
1405.852,0.004843806
1403.924,0.004853973
1401.995,0.004848221
1400.067,0.004830769
1398.138,0.004807585
1396.21,0.004774984
1394.281,0.004725414
1392.353,0.004656198
1390.425,0.004571005
1388.496,0.004478943
1386.568,0.004379152
1384.639,0.004253853
1382.711,0.004100302
1380.782,0.003945649
1378.854,0.00381284
1376.925,0.003708895
1374.997,0.003642593
1373.068,0.003616955
1371.14,0.003615081
1369.211,0.003613173
1367.283,0.003596212
1365.354,0.003561126
1363.426,0.003521394
1361.498,0.003499006
1359.569,0.00349755
1357.641,0.003500148
1355.712,0.00350165
1353.784,0.003512546
1351.855,0.00353371
1349.927,0.003561612
1347.998,0.003598437
1346.07,0.003641481
1344.141,0.00367919
1342.213,0.003704265
1340.284,0.003718844
1338.356,0.00372685
1336.427,0.003735463
1334.499,0.003750469
1332.571,0.003763783
1330.642,0.003771459
1328.714,0.003789952
1326.785,0.003832736
1324.857,0.003889381
1322.928,0.003942998
1321,0.003986633
1319.071,0.004018244
1317.143,0.004035873
1315.214,0.004040628
1313.286,0.004033179
1311.357,0.004009192
1309.429,0.003977093
1307.5,0.00395086
1305.572,0.003931322
1303.644,0.00391944
1301.715,0.003917708
1299.787,0.003920902
1297.858,0.00392603
1295.93,0.00393807
1294.001,0.003954932
1292.073,0.003968977
1290.144,0.003981432
1288.216,0.003992608
1286.287,0.003994233
1284.359,0.003985263
1282.43,0.003978342
1280.502,0.003981629
1278.573,0.003989661
1276.645,0.00399761
1274.717,0.00400876
1272.788,0.004026669
1270.86,0.004049446
1268.931,0.004075312
1267.003,0.004100483
1265.074,0.004119442
1263.146,0.004139115
1261.217,0.004170768
1259.289,0.004216518
1257.36,0.004271635
1255.432,0.004327912
1253.503,0.00438051
1251.575,0.004429382
1249.646,0.004470182
1247.718,0.004491709
1245.79,0.004491517
1243.861,0.004467833
1241.933,0.004406129
1240.004,0.004305143
1238.076,0.004177294
1236.147,0.004030001
1234.219,0.003869292
1232.29,0.003697312
1230.362,0.003524839
1228.433,0.00337298
1226.505,0.00323806
1224.576,0.003109211
1222.648,0.002995493
1220.719,0.002902273
1218.791,0.002827944
1216.863,0.002769327
1214.934,0.002724628
1213.006,0.002699588
1211.077,0.002689044
1209.149,0.002674614
1207.22,0.002647812
1205.292,0.002610899
1203.363,0.002560898
1201.435,0.002501011
1199.506,0.002450865
1197.578,0.002420727
1195.649,0.002404692
1193.721,0.002398115
1191.792,0.002397862
1189.864,0.002397135
1187.936,0.002391576
1186.007,0.002389586
1184.079,0.002407138
1182.15,0.002451919
1180.222,0.00252381
1178.293,0.002622968
1176.365,0.00274179
1174.436,0.002857116
1172.508,0.002949395
1170.579,0.003028589
1168.651,0.003122356
1166.722,0.003238027
1164.794,0.003356872
1162.865,0.003459142
1160.937,0.003534073
1159.009,0.003575059
1157.08,0.003590819
1155.152,0.003599847
1153.223,0.003611196
1151.295,0.003628848
1149.366,0.00365209
1147.438,0.003671717
1145.509,0.003684682
1143.581,0.003696079
1141.652,0.003711515
1139.724,0.003735421
1137.795,0.003768973
1135.867,0.003817857
1133.938,0.003894518
1132.01,0.003995924
1130.082,0.004097182
1128.153,0.004182081
1126.225,0.004245025
1124.296,0.004283885
1122.368,0.004317693
1120.439,0.004364255
1118.511,0.004404613
1116.582,0.00441718
1114.654,0.004421382
1112.725,0.004448462
1110.797,0.004503686
1108.868,0.00457121
1106.94,0.004628743
1105.011,0.004675538
1103.083,0.004730064
1101.155,0.004791441
1099.226,0.004852845
1097.298,0.004924537
1095.369,0.005011763
1093.441,0.005112404
1091.512,0.005233483
1089.584,0.00538392
1087.655,0.005555464
1085.727,0.005733633
1083.798,0.005916364
1081.87,0.006092203
1079.941,0.006236676
1078.013,0.006332602
1076.084,0.006366757
1074.156,0.006341021
1072.228,0.006278503
1070.299,0.006206303
1068.371,0.00615187
1066.442,0.00612912
1064.514,0.006130209
1062.585,0.006155096
1060.657,0.00621861
1058.728,0.006326113
1056.8,0.006464664
1054.871,0.006619128
1052.943,0.006780544
1051.014,0.006922936
1049.086,0.007011829
1047.157,0.007037457
1045.229,0.007002027
1043.301,0.006907673
1041.372,0.006767489
1039.444,0.006601906
1037.515,0.006433635
1035.587,0.006281682
1033.658,0.00615344
1031.73,0.006042191
1029.801,0.005933631
1027.873,0.005824645
1025.944,0.005728293
1024.016,0.005650918
1022.087,0.005579697
1020.159,0.005499901
1018.23,0.005407712
1016.302,0.00530102
1014.374,0.005183917
1012.445,0.005076366
1010.517,0.004988951
1008.588,0.004902641
1006.66,0.004796043
1004.731,0.004677994
1002.803,0.004572598
1000.874,0.004477885
998.946,0.004386312
997.017,0.004307019
995.089,0.004227662
993.16,0.004134658
991.232,0.004039585
989.303,0.003945893
987.375,0.003840398
985.447,0.003712964
983.518,0.003573203
981.59,0.003429437
979.661,0.003275347
977.733,0.003119045
975.804,0.002972591
973.876,0.0028378
971.947,0.002715666
970.019,0.002597954
968.09,0.002480643
966.162,0.002375755
964.233,0.002286494
962.305,0.002203159
960.376,0.002121115
958.448,0.002043084
956.52,0.001972456
954.591,0.001912764
952.663,0.001866592
950.734,0.00183805
948.806,0.001830455
946.877,0.001844531
944.949,0.001868066
943.02,0.001880853
941.092,0.001879419
939.163,0.0018772
937.235,0.001882994
935.306,0.001893039
933.378,0.001898872
931.449,0.001897557
929.521,0.00188787
927.593,0.001867179
925.664,0.00184368
923.736,0.001825254
921.807,0.001799778
919.879,0.001752494
917.95,0.001685358
916.022,0.001617585
914.093,0.001565196
912.165,0.001526639
910.236,0.001496287
908.308,0.001471316
906.379,0.001463454
904.451,0.00149174
902.522,0.001527342
900.594,0.001523928
898.666,0.001494157
896.737,0.001465549
894.809,0.0014415
892.88,0.001421567
890.952,0.001391934
889.023,0.001358619
887.095,0.001342666
885.166,0.001326547
883.238,0.001309328
881.309,0.001314931
879.381,0.001325522
877.452,0.001319908
875.524,0.001316932
873.595,0.001334575
871.667,0.001355082
869.739,0.001361335
867.81,0.001374621
865.882,0.001399014
863.953,0.001402471
862.025,0.001382712
860.096,0.001369744
858.168,0.001380255
856.239,0.001392839
854.311,0.001402362
852.382,0.001428642
850.454,0.001444246
848.525,0.001436326
846.597,0.001439454
844.668,0.001451401
842.74,0.001452696
840.812,0.001442986
838.883,0.001439827
836.955,0.001464195
835.026,0.001512404
833.098,0.001558524
831.169,0.001569187
829.241,0.00153915
827.312,0.001493961
825.384,0.001461355
823.455,0.001471996
821.527,0.001526101
819.598,0.00158127
817.67,0.001605615
815.741,0.00160155
813.813,0.001576087
811.885,0.001551151
809.956,0.001586349
808.028,0.001654291
806.099,0.001654272
804.171,0.001620526
802.242,0.001618746
800.314,0.001601755
798.385,0.001566171
796.457,0.001568868
794.528,0.001594391
792.6,0.001598921
790.671,0.001606256
788.743,0.001635383
786.814,0.001632995
784.886,0.001591533
782.958,0.001597687
781.029,0.001707608
779.101,0.001847028
777.172,0.001906928
775.244,0.001909502
773.315,0.001930677
771.387,0.001969033
769.458,0.002015388
767.53,0.002060768
765.601,0.002046784
763.673,0.001969138
761.744,0.001915229
759.816,0.001918342
757.887,0.00192864
755.959,0.001952858
754.031,0.002018822
752.102,0.002095168
750.174,0.00215345
748.245,0.002138652
746.317,0.002052062
744.388,0.001986772
742.46,0.001953686
740.531,0.001969795
738.603,0.002025533
736.674,0.001991668
734.746,0.001906627
732.817,0.001909601
730.889,0.001952793
728.96,0.001931334
727.032,0.00180343
725.104,0.001640807
723.175,0.001681513
721.247,0.001967933
719.318,0.002141994
717.39,0.002037827
715.461,0.001941092
713.533,0.002032728
711.604,0.002199002
709.676,0.002318924
707.747,0.002352218
705.819,0.002376339
703.89,0.002561208
701.962,0.002831514
700.033,0.002891393
698.105,0.002791684
696.177,0.00278312
694.248,0.002775214
692.32,0.002709961
690.391,0.002682418
688.463,0.002618817
686.534,0.002659423
684.606,0.00293221
682.677,0.003019861
680.749,0.002769124
678.82,0.002647601
676.892,0.002861241
674.963,0.003083592
673.035,0.003129819
671.106,0.003484367
669.178,0.004492243
667.25,0.00512505
665.321,0.004633591
663.393,0.003829138
661.464,0.003113362
659.536,0.002770171
657.607,0.002981311
655.679,0.003417069
653.75,0.00345432
651.822,0.002841559
649.893,0.002486525
647.965,0.003271456
646.036,0.004440619
644.108,0.004738437
642.179,0.00423265
640.251,0.003432759
638.323,0.002654945
636.394,0.002720088
634.466,0.003453823
632.537,0.003849196
630.609,0.004305854
628.68,0.005741209
626.752,0.007397025
624.823,0.008179276
622.895,0.008996814
620.966,0.01005088
619.038,0.009636901
617.109,0.008026107
615.181,0.007284599
613.252,0.006635707
611.324,0.00415123
609.396,0.002154038
607.467,0.001833251
605.539,0.00158688
603.61,0.002684301
601.682,0.004859739
599.753,0.005934127
597.825,0.006592537
595.896,0.006735147
593.968,0.006416704
592.039,0.009035776
590.111,0.0148837
588.182,0.02057026
586.254,0.02384045
584.325,0.02315892
582.397,0.01947466
580.469,0.01685026
578.54,0.01839471
576.612,0.02178381
574.683,0.02075246
572.755,0.0155939
570.826,0.01225417
568.898,0.01153774
566.969,0.01076023
565.041,0.009622452
563.112,0.009368374
561.184,0.01061806
559.255,0.01266585
557.327,0.01291638
555.398,0.01082454
553.47,0.01049972
551.542,0.01338726
549.613,0.01679255
547.685,0.01824199
545.756,0.01560701
543.828,0.01124631
541.899,0.009919198
539.971,0.01158846
538.042,0.01434717
536.114,0.01607818
534.185,0.01447123
532.257,0.01168943
530.328,0.0120376
528.4,0.01303607
526.471,0.0108078
524.543,0.009386035
522.615,0.01211493
520.686,0.01604302
518.758,0.01733087
516.829,0.01696423
514.901,0.01946647
512.972,0.02306726
511.044,0.02305091
509.115,0.02012619
507.187,0.01746655
505.258,0.01763961
503.33,0.01965116
501.401,0.01933266
499.473,0.01666832
497.544,0.01509857
495.616,0.01463785
493.688,0.01338225
491.759,0.01236122
489.831,0.01340893
487.902,0.01601912
485.974,0.01801493
484.045,0.01809149
482.117,0.01672541
480.188,0.01463988
478.26,0.01280625
476.331,0.01354075
474.403,0.01667601
472.474,0.0177183
470.546,0.01650579
468.617,0.01735665
466.689,0.01967802
464.76,0.02176933
462.832,0.02308013
460.904,0.02045914
458.975,0.01494597
457.047,0.01203224
455.118,0.01277109
453.19,0.01577029
451.261,0.02030142
449.333,0.02249979
447.404,0.01888492
445.476,0.01417841
443.547,0.01421888
441.619,0.01570554
439.69,0.01488863
437.762,0.01499095
435.833,0.01636859
433.905,0.01609828
431.977,0.0158111
430.048,0.01660913
428.12,0.01666578
426.191,0.01599332
424.263,0.01539267
422.334,0.01499152
420.406,0.01348367
418.477,0.01115475
416.549,0.01201854
414.62,0.01595032
412.692,0.01795334
410.763,0.01669086
408.835,0.01479199
406.906,0.0141381
404.978,0.01429375
403.05,0.01462743
401.121,0.01514952
399.193,0.01483954
