Wavenumbers [1/cm],Absorbance
3997.712,0.000256554
3995.783,0.000267433
3993.855,0.000274245
3991.926,0.000270645
3989.998,0.000266733
3988.069,0.000269039
3986.141,0.000273235
3984.212,0.000275644
3982.284,0.000281187
3980.355,0.000286238
3978.427,0.000281446
3976.499,0.000272509
3974.57,0.000265309
3972.642,0.000263392
3970.713,0.000271784
3968.785,0.000278881
3966.856,0.000273338
3964.928,0.000267951
3962.999,0.000275825
3961.071,0.000285772
3959.142,0.000275514
3957.214,0.000257745
3955.285,0.000262796
3953.357,0.000272561
3951.428,0.000259818
3949.5,0.000243293
3947.572,0.000239459
3945.643,0.000237154
3943.715,0.000240703
3941.786,0.000258108
3939.858,0.000262382
3937.929,0.000240495
3936.001,0.000223194
3934.072,0.00023143
3932.144,0.000250674
3930.215,0.00025974
3928.287,0.000257797
3926.358,0.000252332
3924.43,0.000243888
3922.501,0.000236248
3920.573,0.000233528
3918.645,0.000233554
3916.716,0.000231845
3914.788,0.000228892
3912.859,0.000227416
3910.931,0.000227416
3909.002,0.000232803
3907.074,0.000242231
3905.145,0.000240185
3903.217,0.000219102
3901.288,0.000197788
3899.36,0.000201414
3897.431,0.000221174
3895.503,0.000225189
3893.574,0.000209105
3891.646,0.000195328
3889.718,0.000191676
3887.789,0.000189863
3885.861,0.000189138
3883.932,0.000192039
3882.004,0.000197762
3880.075,0.000208846
3878.147,0.000218817
3876.218,0.00021602
3874.29,0.0002039
3872.361,0.000193178
3870.433,0.000192557
3868.504,0.000203071
3866.576,0.000209442
3864.647,0.000201595
3862.719,0.000187274
3860.791,0.000171425
3858.862,0.00015959
3856.934,0.000156095
3855.005,0.0001519
3853.077,0.000151744
3851.148,0.000170985
3849.22,0.000193903
3847.291,0.00020074
3845.363,0.000200663
3843.434,0.000201543
3841.506,0.000197374
3839.577,0.00019424
3837.649,0.000204858
3835.72,0.000212654
3833.792,0.000194551
3831.864,0.000163242
3829.935,0.000140584
3828.007,0.000130174
3826.078,0.000131184
3824.15,0.000143069
3822.221,0.000161481
3820.293,0.000177769
3818.364,0.000178624
3816.436,0.000163786
3814.507,0.000151071
3812.579,0.000150087
3810.65,0.000153945
3808.722,0.000153194
3806.793,0.000146798
3804.865,0.000138693
3802.937,0.000132945
3801.008,0.000134162
3799.08,0.00014092
3797.151,0.000146073
3795.223,0.000149232
3793.294,0.000154178
3791.366,0.000153065
3789.437,0.00014004
3787.509,0.000130589
3785.58,0.000136777
3783.652,0.000149983
3781.723,0.000156897
3779.795,0.000158192
3777.866,0.000159332
3775.938,0.000152676
3774.01,0.000135301
3772.081,0.000120335
3770.153,0.000118289
3768.224,0.000123261
3766.296,0.000123312
3764.367,0.000115985
3762.439,0.000102288
3760.51,8.94E-05
3758.582,8.73E-05
3756.653,9.10E-05
3754.725,8.56E-05
3752.796,7.08E-05
3750.868,5.51E-05
3748.939,4.02E-05
3747.011,1.72E-05
3745.083,-3.12E-05
3743.154,-9.60E-05
3741.226,-0.00015948
3739.297,-0.000239586
3737.369,-0.000339853
3735.44,-0.000431667
3733.512,-0.000498743
3731.583,-0.00054218
3729.655,-0.00057098
3727.726,-0.000592074
3725.798,-0.000591092
3723.869,-0.000555675
3721.941,-0.000499519
3720.012,-0.000426547
3718.084,-0.00033049
3716.156,-0.000240621
3714.227,-0.000217853
3712.299,-0.000288895
3710.37,-0.000414547
3708.442,-0.000542903
3706.513,-0.000631831
3704.585,-0.00065985
3702.656,-0.00064429
3700.728,-0.000618183
3698.799,-0.00062175
3696.871,-0.000660263
3694.942,-0.000682284
3693.014,-0.000667293
3691.085,-0.000650545
3689.157,-0.00065132
3687.229,-0.00065773
3685.3,-0.000658506
3683.372,-0.000660728
3681.443,-0.0006843
3679.515,-0.000724461
3677.586,-0.00075635
3675.658,-0.000775834
3673.729,-0.000791389
3671.801,-0.000816504
3669.872,-0.000859495
3667.944,-0.000910128
3666.015,-0.000951147
3664.087,-0.000979558
3662.158,-0.001016439
3660.23,-0.001064885
3658.302,-0.001102222
3656.373,-0.001126751
3654.445,-0.00116522
3652.516,-0.001225781
3650.588,-0.001274668
3648.659,-0.001300684
3646.731,-0.001328556
3644.802,-0.001370207
3642.874,-0.001424496
3640.945,-0.001481358
3639.017,-0.001551522
3637.088,-0.001652261
3635.16,-0.001740291
3633.231,-0.00177788
3631.303,-0.001809589
3629.375,-0.001867019
3627.446,-0.001905731
3625.518,-0.001917019
3623.589,-0.001942378
3621.661,-0.001937173
3619.732,-0.001852069
3617.804,-0.001753594
3615.875,-0.001690889
3613.947,-0.001661132
3612.018,-0.001678563
3610.09,-0.001732865
3608.161,-0.00180268
3606.233,-0.001885989
3604.304,-0.001975312
3602.376,-0.002037667
3600.448,-0.002029783
3598.519,-0.00197088
3596.591,-0.001935523
3594.662,-0.001937327
3592.734,-0.001932482
3590.805,-0.001917174
3588.877,-0.001898824
3586.948,-0.001858204
3585.02,-0.001825674
3583.091,-0.001840212
3581.163,-0.001840728
3579.234,-0.001777364
3577.306,-0.001713992
3575.377,-0.001708165
3573.449,-0.00175576
3571.521,-0.001818869
3569.592,-0.00183449
3567.664,-0.00180005
3565.735,-0.001776591
3563.807,-0.001759679
3561.878,-0.001719046
3559.95,-0.001708577
3558.021,-0.001732659
3556.093,-0.001718014
3554.164,-0.001698882
3552.236,-0.001726987
3550.307,-0.001751429
3548.379,-0.001749933
3546.45,-0.001758802
3544.522,-0.001789739
3542.594,-0.001826396
3540.665,-0.001850729
3538.737,-0.001826705
3536.808,-0.00176071
3534.88,-0.001748387
3532.951,-0.001822942
3531.023,-0.001909391
3529.094,-0.001954902
3527.166,-0.001967426
3525.237,-0.001972219
3523.309,-0.00195918
3521.38,-0.001932173
3519.452,-0.001949594
3517.523,-0.00201489
3515.595,-0.002070851
3513.667,-0.002104702
3511.738,-0.002148596
3509.81,-0.002209536
3507.881,-0.00225754
3505.953,-0.002282467
3504.024,-0.002326549
3502.096,-0.002412589
3500.167,-0.002478382
3498.239,-0.002491509
3496.31,-0.002492281
3494.382,-0.002467983
3492.453,-0.00243761
3490.525,-0.002497531
3488.596,-0.002638653
3486.668,-0.002773659
3484.74,-0.002872262
3482.811,-0.002912479
3480.883,-0.002877611
3478.954,-0.002871954
3477.026,-0.002960766
3475.097,-0.003018404
3473.169,-0.003038763
3471.24,-0.003121372
3469.312,-0.003185259
3467.383,-0.003174569
3465.455,-0.003142498
3463.526,-0.003106209
3461.598,-0.003123583
3459.669,-0.003222313
3457.741,-0.003315112
3455.813,-0.003395768
3453.884,-0.003579167
3451.956,-0.003852504
3450.027,-0.004052842
3448.099,-0.004096847
3446.17,-0.003993237
3444.242,-0.003840496
3442.313,-0.003826486
3440.385,-0.004007036
3438.456,-0.004254933
3436.528,-0.004412499
3434.599,-0.0044413
3432.671,-0.00442854
3430.742,-0.004462925
3428.814,-0.004630507
3426.885,-0.004837757
3424.957,-0.004842467
3423.029,-0.004715273
3421.1,-0.004724337
3419.172,-0.004935944
3417.243,-0.005197737
3415.315,-0.005298554
3413.386,-0.005289655
3411.458,-0.005421385
3409.529,-0.005674301
3407.601,-0.005792479
3405.672,-0.005706084
3403.744,-0.005623453
3401.815,-0.005756104
3399.887,-0.006014136
3397.958,-0.006155242
3396.03,-0.006250377
3394.102,-0.006482715
3392.173,-0.006745311
3390.245,-0.00686437
3388.316,-0.0068421
3386.388,-0.006812897
3384.459,-0.006896575
3382.531,-0.007039331
3380.602,-0.007091898
3378.674,-0.007094954
3376.745,-0.007181837
3374.817,-0.007214528
3372.888,-0.007095718
3370.96,-0.007033269
3369.031,-0.007103969
3367.103,-0.007179494
3365.175,-0.007237441
3363.246,-0.007339669
3361.318,-0.007396373
3359.389,-0.007263713
3357.461,-0.007109622
3355.532,-0.007238918
3353.604,-0.007505178
3351.675,-0.007529908
3349.747,-0.007407316
3347.818,-0.007435308
3345.89,-0.00752599
3343.961,-0.007492406
3342.033,-0.007407723
3340.104,-0.007382019
3338.176,-0.007404771
3336.248,-0.007500548
3334.319,-0.007642495
3332.391,-0.007633796
3330.462,-0.007473018
3328.534,-0.007446962
3326.605,-0.007610243
3324.677,-0.007648599
3322.748,-0.007419073
3320.82,-0.007176235
3318.891,-0.007144814
3316.963,-0.007277001
3315.034,-0.007405178
3313.106,-0.007421974
3311.177,-0.007386295
3309.249,-0.007343996
3307.321,-0.007247166
3305.392,-0.007173231
3303.464,-0.007178272
3301.535,-0.007180615
3299.607,-0.007165134
3297.678,-0.00710947
3295.75,-0.007005914
3293.821,-0.006921187
3291.893,-0.006785171
3289.964,-0.00661959
3288.036,-0.006657728
3286.107,-0.006814324
3284.179,-0.006750561
3282.25,-0.006475982
3280.322,-0.006314469
3278.394,-0.00641166
3276.465,-0.006617551
3274.537,-0.006760705
3272.608,-0.006777678
3270.68,-0.006747452
3268.751,-0.0067867
3266.823,-0.0068183
3264.894,-0.006742405
3262.966,-0.006632185
3261.037,-0.006675063
3259.109,-0.00684526
3257.18,-0.006865797
3255.252,-0.006830327
3253.323,-0.007017936
3251.395,-0.007295126
3249.467,-0.007454189
3247.538,-0.007529959
3245.61,-0.00759025
3243.681,-0.0075439
3241.753,-0.007323176
3239.824,-0.007132694
3237.896,-0.007145527
3235.967,-0.007238867
3234.039,-0.007264782
3232.11,-0.00723907
3230.182,-0.00723515
3228.253,-0.00725633
3226.325,-0.007289373
3224.396,-0.00729818
3222.468,-0.007166662
3220.54,-0.006985179
3218.611,-0.006984517
3216.683,-0.007046004
3214.754,-0.006987319
3212.826,-0.006925518
3210.897,-0.006918639
3208.969,-0.006824313
3207.04,-0.006604651
3205.112,-0.006447724
3203.183,-0.006482256
3201.255,-0.006576095
3199.326,-0.00659741
3197.398,-0.006638864
3195.469,-0.006775232
3193.541,-0.006848266
3191.613,-0.006737359
3189.684,-0.006513164
3187.756,-0.00627482
3185.827,-0.006178569
3183.899,-0.006273902
3181.97,-0.00632503
3180.042,-0.006208375
3178.113,-0.006084593
3176.185,-0.006107821
3174.256,-0.006257827
3172.328,-0.006325745
3170.399,-0.006203475
3168.471,-0.006094599
3166.542,-0.006091842
3164.614,-0.006034712
3162.686,-0.005909603
3160.757,-0.005838863
3158.829,-0.00580571
3156.9,-0.005751404
3154.972,-0.005759936
3153.043,-0.005851275
3151.115,-0.005834623
3149.186,-0.005652123
3147.258,-0.005503287
3145.329,-0.005502009
3143.401,-0.005547401
3141.472,-0.005526239
3139.544,-0.005433093
3137.615,-0.00531983
3135.687,-0.005244594
3133.759,-0.00520935
3131.83,-0.005154815
3129.902,-0.005053863
3127.973,-0.004952324
3126.045,-0.004903746
3124.116,-0.004890846
3122.188,-0.004853833
3120.259,-0.004742773
3118.331,-0.004584148
3116.402,-0.004466409
3114.474,-0.004370422
3112.545,-0.004241808
3110.617,-0.004105822
3108.688,-0.003966664
3106.76,-0.003838905
3104.832,-0.003738313
3102.903,-0.003633591
3100.975,-0.003518676
3099.046,-0.003376145
3097.118,-0.003197697
3095.189,-0.003023596
3093.261,-0.002857964
3091.332,-0.002712386
3089.404,-0.002622186
3087.475,-0.002545555
3085.547,-0.002423092
3083.618,-0.002277419
3081.69,-0.002142671
3079.761,-0.001995359
3077.833,-0.001822426
3075.905,-0.001660409
3073.976,-0.001548633
3072.048,-0.001480017
3070.119,-0.001427386
3068.191,-0.001392862
3066.262,-0.001344969
3064.334,-0.001232647
3062.405,-0.001112447
3060.477,-0.001072476
3058.548,-0.00108673
3056.62,-0.001070566
3054.691,-0.001030952
3052.763,-0.001030643
3050.834,-0.001043296
3048.906,-0.001003939
3046.978,-0.000931826
3045.049,-0.00089995
3043.121,-0.000897936
3041.192,-0.000863319
3039.264,-0.000824875
3037.335,-0.000821775
3035.407,-0.000829629
3033.478,-0.000840118
3031.55,-0.000846474
3029.621,-0.000823015
3027.693,-0.000782914
3025.764,-0.000755162
3023.836,-0.000725082
3021.907,-0.000688642
3019.979,-0.000683524
3018.051,-0.000699703
3016.122,-0.000677373
3014.194,-0.000612651
3012.265,-0.000552107
3010.337,-0.000512499
3008.408,-0.000491141
3006.48,-0.000475627
3004.551,-0.000429029
3002.623,-0.000347768
3000.694,-0.000273529
2998.766,-0.000223908
2996.837,-0.000164811
2994.909,-6.99E-05
2992.98,3.34E-05
2991.052,0.000131495
2989.124,0.000250726
2987.195,0.000383541
2985.267,0.000511186
2983.338,0.000645947
2981.41,0.000787492
2979.481,0.000919562
2977.553,0.001047002
2975.624,0.001185278
2973.696,0.001336294
2971.767,0.001488844
2969.839,0.001635055
2967.91,0.0017796
2965.982,0.001923361
2964.053,0.002057728
2962.125,0.002162504
2960.197,0.00220642
2958.268,0.002199266
2956.34,0.00218532
2954.411,0.002159513
2952.483,0.002102596
2950.554,0.002048417
2948.626,0.002026726
2946.697,0.00203081
2944.769,0.002067169
2942.84,0.002152307
2940.912,0.00227428
2938.983,0.002405789
2937.055,0.002526636
2935.126,0.002628504
2933.198,0.002716539
2931.27,0.002799798
2929.341,0.002872753
2927.413,0.002914135
2925.484,0.002914708
2923.556,0.00287562
2921.627,0.002790497
2919.699,0.002651032
2917.77,0.002461678
2915.842,0.002261061
2913.913,0.002093986
2911.985,0.001964704
2910.056,0.001846977
2908.128,0.001724162
2906.199,0.001613749
2904.271,0.001547889
2902.343,0.001526197
2900.414,0.001516014
2898.486,0.001496429
2896.557,0.001469571
2894.629,0.001443234
2892.7,0.001427651
2890.772,0.001427703
2888.843,0.001430898
2886.915,0.001419393
2884.986,0.00139724
2883.058,0.001381814
2881.129,0.00137714
2879.201,0.001382438
2877.272,0.001400356
2875.344,0.001423106
2873.416,0.001424041
2871.487,0.001384204
2869.559,0.001324662
2867.63,0.001274786
2865.702,0.001237688
2863.773,0.001228965
2861.845,0.001272034
2859.916,0.001347953
2857.988,0.001426015
2856.059,0.001489052
2854.131,0.001507546
2852.202,0.001462402
2850.274,0.001366441
2848.345,0.001247423
2846.417,0.00112976
2844.489,0.001024921
2842.56,0.000933571
2840.632,0.000856998
2838.703,0.000794649
2836.775,0.000739804
2834.846,0.000695388
2832.918,0.000671017
2830.989,0.000663109
2829.061,0.000662409
2827.132,0.000668554
2825.204,0.000683928
2823.275,0.000694506
2821.347,0.000684706
2819.418,0.000666246
2817.49,0.000656913
2815.562,0.000651572
2813.633,0.000639932
2811.705,0.000624093
2809.776,0.000609576
2807.848,0.000601074
2805.919,0.000600167
2803.991,0.000603018
2802.062,0.000605429
2800.134,0.000601229
2798.205,0.000588424
2796.277,0.000581322
2794.348,0.000581996
2792.42,0.000570021
2790.491,0.000547652
2788.563,0.000534589
2786.635,0.000532024
2784.706,0.000532179
2782.778,0.000533138
2780.849,0.000525648
2778.921,0.000503982
2776.992,0.000489158
2775.064,0.000495688
2773.135,0.00049828
2771.207,0.000482031
2769.278,0.000462725
2767.35,0.000446452
2765.421,0.000434325
2763.493,0.000435802
2761.564,0.000440025
2759.636,0.000428106
2757.708,0.000414814
2755.779,0.000413104
2753.851,0.000409321
2751.922,0.000401366
2749.994,0.000396547
2748.065,0.000394941
2746.137,0.000393749
2744.208,0.000390406
2742.28,0.000386779
2740.351,0.000383955
2738.423,0.000377996
2736.494,0.000368047
2734.566,0.000357451
2732.637,0.000344601
2730.709,0.000328384
2728.781,0.000312789
2726.852,0.000300562
2724.924,0.000299993
2722.995,0.000304914
2721.067,0.000298801
2719.138,0.000289787
2717.21,0.000286316
2715.281,0.000281783
2713.353,0.000278182
2711.424,0.000277897
2709.496,0.000272095
2707.567,0.000257072
2705.639,0.000243526
2703.71,0.000240418
2701.782,0.000245779
2699.854,0.000255803
2697.925,0.000260931
2695.997,0.00025399
2694.068,0.000244096
2692.14,0.000238605
2690.211,0.000235031
2688.283,0.000229721
2686.354,0.000224956
2684.426,0.000224645
2682.497,0.000219128
2680.569,0.000204521
2678.64,0.000196933
2676.712,0.000200248
2674.783,0.000204884
2672.855,0.000207914
2670.927,0.000212809
2668.998,0.000219439
2667.07,0.000223557
2665.141,0.000219491
2663.213,0.00020434
2661.284,0.0001902
2659.356,0.00019266
2657.427,0.000199549
2655.499,0.000191106
2653.57,0.000176656
2651.642,0.000175983
2649.713,0.000191003
2647.785,0.000210996
2645.856,0.000219439
2643.928,0.00020592
2642,0.00017808
2640.071,0.000155395
2638.143,0.000156561
2636.214,0.000177511
2634.286,0.000188076
2632.357,0.000162154
2630.429,0.000115389
2628.5,9.12E-05
2626.572,9.68E-05
2624.643,0.000110029
2622.715,0.000122613
2620.786,0.000134602
2618.858,0.000143665
2616.929,0.000138357
2615.001,0.000119377
2613.073,0.000114483
2611.144,0.000122769
2609.216,0.000118393
2607.287,0.000104022
2605.359,8.70E-05
2603.43,6.52E-05
2601.502,4.63E-05
2599.573,3.74E-05
2597.645,3.67E-05
2595.716,2.79E-05
2593.788,1.55E-05
2591.859,3.12E-05
2589.931,6.85E-05
2588.002,7.68E-05
2586.074,3.68E-05
2584.146,3.81E-06
2582.217,1.48E-05
2580.289,3.42E-05
2578.36,5.02E-05
2576.432,6.05E-05
2574.503,4.65E-05
2572.575,2.82E-05
2570.646,1.47E-05
2568.718,6.29E-06
2566.789,3.74E-05
2564.861,9.52E-05
2562.932,0.000120283
2561.004,9.41E-05
2559.075,4.26E-05
2557.147,1.12E-05
2555.219,1.55E-07
2553.29,-2.46E-05
2551.362,-1.44E-05
2549.433,4.45E-05
2547.505,6.16E-05
2545.576,3.03E-05
2543.648,-2.85E-06
2541.719,-2.76E-05
2539.791,-3.03E-05
2537.862,-2.94E-05
2535.934,-5.03E-05
2534.005,-6.39E-05
2532.077,-3.05E-05
2530.148,1.32E-05
2528.22,1.22E-05
2526.292,-7.40E-06
2524.363,-1.67E-05
2522.435,-3.88E-05
2520.506,-8.77E-05
2518.578,-0.000133706
2516.649,-0.000146542
2514.721,-0.000125374
2512.792,-8.11E-05
2510.864,-4.16E-05
2508.935,-1.20E-05
2507.007,1.42E-05
2505.078,9.06E-06
2503.15,-3.03E-05
2501.221,-5.93E-05
2499.293,-5.48E-05
2497.365,-6.03E-05
2495.436,-9.12E-05
2493.508,-7.99E-05
2491.579,-2.57E-05
2489.651,3.11E-06
2487.722,-1.37E-05
2485.794,-5.14E-05
2483.865,-6.80E-05
2481.937,-6.72E-05
2480.008,-9.54E-05
2478.08,-0.00012998
2476.151,-0.000128841
2474.223,-0.000113935
2472.294,-0.000112382
2470.366,-0.000143126
2468.438,-0.000188668
2466.509,-0.000190634
2464.581,-0.000175109
2462.652,-0.000207401
2460.724,-0.000251384
2458.795,-0.000250194
2456.867,-0.000207918
2454.938,-0.000135466
2453.01,-5.14E-05
2451.081,2.59E-07
2449.153,-4.14E-06
2447.224,-4.99E-05
2445.296,-9.09E-05
2443.367,-9.18E-05
2441.439,-8.34E-05
2439.51,-0.000100944
2437.582,-0.000118697
2435.654,-0.000115695
2433.725,-0.000111399
2431.797,-0.000119059
2429.868,-0.00013412
2427.94,-0.000147059
2426.011,-0.000162275
2424.083,-0.000177645
2422.154,-0.000170917
2420.226,-0.000161912
2418.297,-0.000182872
2416.369,-0.000191566
2414.44,-0.000152752
2412.512,-0.000109846
2410.583,-8.60E-05
2408.655,-7.20E-05
2406.727,-7.41E-05
2404.798,-7.48E-05
2402.87,-7.94E-05
2400.941,-0.000124752
2399.013,-0.00018608
2397.084,-0.000217853
2395.156,-0.000216663
2393.227,-0.000193791
2391.299,-0.000182872
2389.37,-0.000233532
2387.442,-0.000359873
2385.513,-0.000592953
2383.585,-0.001038803
2381.656,-0.001821137
2379.728,-0.002989406
2377.8,-0.004466665
2375.871,-0.006084695
2373.943,-0.007672913
2372.014,-0.009161729
2370.086,-0.010563
2368.157,-0.01183021
2366.229,-0.01288315
2364.3,-0.01368289
2362.372,-0.01420625
2360.443,-0.01439651
2358.515,-0.01418962
2356.586,-0.01355665
2354.658,-0.0123919
2352.729,-0.01050626
2350.801,-0.00837119
2348.873,-0.007330353
2346.944,-0.008085185
2345.016,-0.009701812
2343.087,-0.01071769
2341.159,-0.01092595
2339.23,-0.01081421
2337.302,-0.0105909
2335.373,-0.0103524
2333.445,-0.01019551
2331.516,-0.01005055
2329.588,-0.009721101
2327.659,-0.009227521
2325.731,-0.008786097
2323.802,-0.008432533
2321.874,-0.007972559
2319.946,-0.007276492
2318.017,-0.006449611
2316.089,-0.005688455
2314.16,-0.005075304
2312.232,-0.004517136
2310.303,-0.003942193
2308.375,-0.003399723
2306.446,-0.002904714
2304.518,-0.002441317
2302.589,-0.002073427
2300.661,-0.001833356
2298.732,-0.001647464
2296.804,-0.001454063
2294.875,-0.001262795
2292.947,-0.001099021
2291.019,-0.000941435
2289.09,-0.000802241
2287.162,-0.000736504
2285.233,-0.000687711
2283.305,-0.000589955
2281.376,-0.000522272
2279.448,-0.000539077
2277.519,-0.000566636
2275.591,-0.000547299
2273.662,-0.000476093
2271.734,-0.000409168
2269.805,-0.000453441
2267.877,-0.000575271
2265.948,-0.000605568
2264.02,-0.000523978
2262.092,-0.000544403
2260.163,-0.00068797
2258.235,-0.00063607
2256.306,-0.000374978
2254.378,-0.000278185
2252.449,-0.000386461
2250.521,-0.00043927
2248.592,-0.000403323
2246.664,-0.000319419
2244.735,-0.000256299
2242.807,-0.000380254
2240.878,-0.000599002
2238.95,-0.000635915
2237.021,-0.000423392
2235.093,-0.00020621
2233.165,-0.000137743
2231.236,-6.45E-05
2229.308,-4.14E-07
2227.379,-6.40E-05
2225.451,-0.000166829
2223.522,-0.000281341
2221.594,-0.000370839
2219.665,-0.000247451
2217.737,-5.97E-05
2215.808,-0.00017987
2213.88,-0.000484108
2211.951,-0.00057827
2210.023,-0.000502311
2208.094,-0.00049502
2206.166,-0.000371046
2204.238,2.64E-05
2202.309,0.000414814
2200.381,0.000395277
2198.452,-0.000318591
2196.524,-0.00099521
2194.595,-0.000597606
2192.667,0.000234487
2190.738,0.00061515
2188.81,0.000893622
2186.881,0.001104742
2184.953,0.000690798
2183.024,-6.22E-05
2181.096,-0.000477747
2179.167,-0.000713866
2177.239,-0.00082472
2175.311,-0.000401875
2173.382,-9.99E-05
2171.454,-0.000661194
2169.525,-0.000824772
2167.597,0.000378592
2165.668,0.00142121
2163.74,0.001017552
2161.811,-0.000103532
2159.883,-0.001108471
2157.954,-0.001926297
2156.026,-0.002236732
2154.097,-0.001496733
2152.169,-0.000306227
2150.24,0.000363099
2148.312,0.000300951
2146.384,-0.000336129
2144.455,-0.001027234
2142.527,-0.001174307
2140.598,-0.000662899
2138.67,-2.84E-05
2136.741,0.000104178
2134.813,-0.000133189
2132.884,-0.000407358
2130.956,-0.00063302
2129.027,-0.000749218
2127.099,-0.000825185
2125.17,-0.000811543
2123.242,-0.000632917
2121.313,-0.000473455
2119.385,-0.000444338
2117.457,-0.000538767
2115.528,-0.000683628
2113.6,-0.000678355
2111.671,-0.000568756
2109.743,-0.000565137
2107.814,-0.000522375
2105.886,-0.000313418
2103.957,-0.000180905
2102.029,-0.000235498
2100.1,-0.00031916
2098.172,-0.000312797
2096.243,-0.000230479
2094.315,-0.000179094
2092.386,-0.000209471
2090.458,-0.000313159
2088.53,-0.000526719
2086.601,-0.000737899
2084.673,-0.000718001
2082.744,-0.000537422
2080.816,-0.000404099
2078.887,-0.000353459
2076.959,-0.000495227
2075.03,-0.000815315
2073.102,-0.000945723
2071.173,-0.000852726
2069.245,-0.001005075
2067.316,-0.001397971
2065.388,-0.001407725
2063.459,-0.000992214
2061.531,-0.000688228
2059.603,-0.000519738
2057.674,-0.000266544
2055.746,-0.000172832
2053.817,-0.000467249
2051.889,-0.000697222
2049.96,-0.000422719
2048.032,-0.000159325
2046.103,-0.000215991
2044.175,-6.88E-05
2042.246,-0.000114194
2040.318,-0.000694896
2038.389,-0.001054452
2036.461,-0.001045259
2034.532,-0.001143223
2032.604,-0.001014063
2030.676,-0.000367374
2028.747,-0.000148094
2026.819,-0.000776041
2024.89,-0.000998929
2022.962,0.000208743
2021.033,0.001813729
2019.105,0.001418691
2017.176,-0.001179677
2015.248,-0.003197131
2013.319,-0.003052284
2011.391,-0.002146329
2009.462,-0.001700275
2007.534,-0.001136097
2005.605,-0.00059833
2003.677,-0.001095922
2001.749,-0.001997781
1999.82,-0.002239668
1997.892,-0.001822529
1995.963,-0.001243075
1994.035,-0.000903464
1992.106,-0.000899124
1990.178,-0.00103715
1988.249,-0.001091171
1986.321,-0.0009793
1984.392,-0.000723789
1982.464,-0.000481936
1980.535,-0.000187736
1978.607,0.000485763
1976.678,0.001085252
1974.75,0.001108297
1972.822,0.000700884
1970.893,2.58E-05
1968.965,-0.00012439
1967.036,0.000282093
1965.108,0.000170493
1963.179,-0.000430167
1961.251,-0.000841875
1959.322,-0.000913848
1957.394,-0.000646409
1955.465,-0.000294741
1953.537,-0.000197517
1951.608,-0.000370374
1949.68,-0.000573875
1947.751,-0.000388116
1945.823,0.000100786
1943.895,0.000224153
1941.966,-0.000131326
1940.038,-0.000590472
1938.109,-0.000958793
1936.181,-0.001081772
1934.252,-0.000961685
1932.324,-0.000920513
1930.395,-0.000972172
1928.467,-0.000812163
1926.538,-0.000522272
1924.61,-0.000429184
1922.681,-0.000612703
1920.753,-0.000797125
1918.824,-0.000720068
1916.896,-0.000530183
1914.968,-0.000458871
1913.039,-0.000488349
1911.111,-0.000472214
1909.182,-0.000385116
1907.254,-0.000345492
1905.325,-0.000329817
1903.397,-0.000282272
1901.468,-0.000298414
1899.54,-0.000397375
1897.611,-0.000460733
1895.683,-0.000440046
1893.754,-0.000420443
1891.826,-0.000435443
1889.897,-0.00043508
1887.969,-0.000443769
1886.041,-0.000498536
1884.112,-0.00052827
1882.184,-0.000481161
1880.255,-0.00043327
1878.327,-0.000442166
1876.398,-0.000458457
1874.47,-0.000438649
1872.541,-0.000424374
1870.613,-0.000452044
1868.684,-0.000471128
1866.756,-0.00045913
1864.827,-0.000454527
1862.899,-0.000466629
1860.97,-0.000465543
1859.042,-0.00042696
1857.114,-0.000397375
1855.185,-0.000420754
1853.257,-0.000439115
1851.328,-0.000408754
1849.4,-0.000389047
1847.471,-0.000427788
1845.543,-0.000477696
1843.614,-0.000492434
1841.686,-0.000475834
1839.757,-0.00043777
1837.829,-0.000400375
1835.9,-0.000392823
1833.972,-0.000414133
1832.043,-0.00043508
1830.115,-0.000429443
1828.187,-0.000410668
1826.258,-0.000411133
1824.33,-0.00042665
1822.401,-0.000436115
1820.473,-0.000427478
1818.544,-0.000405754
1816.616,-0.000407978
1814.687,-0.000438339
1812.759,-0.000463474
1810.83,-0.000467353
1808.902,-0.000442476
1806.973,-0.000404047
1805.045,-0.000396961
1803.116,-0.000424736
1801.188,-0.000436425
1799.26,-0.000411599
1797.331,-0.00039153
1795.403,-0.000407409
1793.474,-0.000430684
1791.546,-0.000429495
1789.617,-0.000424788
1787.689,-0.000438649
1785.76,-0.00045132
1783.832,-0.000455458
1781.903,-0.000462181
1779.975,-0.000458302
1778.046,-0.000441183
1776.118,-0.000436787
1774.189,-0.000452096
1772.261,-0.000467146
1770.333,-0.000469008
1768.404,-0.000473352
1766.476,-0.000497761
1764.547,-0.000525168
1762.619,-0.000532614
1760.69,-0.000522479
1758.762,-0.000504742
1756.833,-0.000492589
1754.905,-0.000493469
1752.976,-0.00049533
1751.048,-0.000491865
1749.119,-0.000494451
1747.191,-0.000509706
1745.262,-0.000527236
1743.334,-0.000533544
1741.406,-0.000530597
1739.477,-0.00052765
1737.549,-0.000538302
1735.62,-0.000570669
1733.692,-0.000603552
1731.763,-0.000618234
1729.835,-0.000623094
1727.906,-0.000630642
1725.978,-0.000645737
1724.049,-0.000664554
1722.121,-0.000688745
1720.192,-0.000720482
1718.264,-0.000747358
1716.335,-0.000764051
1714.407,-0.000769322
1712.479,-0.000753043
1710.55,-0.00071278
1708.622,-0.000643618
1706.693,-0.00052977
1704.765,-0.000368098
1702.836,-0.000159791
1700.908,0.000111272
1698.979,0.000467027
1697.051,0.000927941
1695.122,0.001512715
1693.194,0.00222825
1691.265,0.003070733
1689.337,0.004039779
1687.408,0.005123818
1685.48,0.006309157
1683.552,0.007579654
1681.623,0.008880642
1679.695,0.01017181
1677.766,0.01145073
1675.838,0.0126908
1673.909,0.01385499
1671.981,0.01492083
1670.052,0.01587625
1668.124,0.01672072
1666.195,0.01745595
1664.267,0.01809638
1662.338,0.01865265
1660.41,0.01910834
1658.481,0.01946174
1656.553,0.01972694
1654.625,0.01989313
1652.696,0.0199288
1650.768,0.01981433
1648.839,0.01956885
1646.911,0.0192382
1644.982,0.0188596
1643.054,0.01845303
1641.125,0.01804465
1639.197,0.0176631
1637.268,0.01730701
1635.34,0.01696094
1633.411,0.01663098
1631.483,0.01632909
1629.554,0.01604646
1627.626,0.01578253
1625.698,0.01556139
1623.769,0.01537992
1621.841,0.01520721
1619.912,0.01503554
1617.984,0.01485539
1616.055,0.01462685
1614.127,0.01431359
1612.198,0.01390112
1610.27,0.01338079
1608.341,0.01277295
1606.413,0.012128
1604.484,0.01147188
1602.556,0.01080519
1600.627,0.01013864
1598.699,0.009497953
1596.771,0.008897076
1594.842,0.00833756
1592.914,0.007841385
1590.985,0.007431771
1589.057,0.007117997
1587.128,0.006909301
1585.2,0.006795379
1583.271,0.006759726
1581.343,0.00681326
1579.414,0.00695996
1577.486,0.00718255
1575.557,0.007487942
1573.629,0.007884878
1571.7,0.008345028
1569.772,0.008844765
1567.844,0.009388112
1565.915,0.009980556
1563.987,0.01061723
1562.058,0.01128826
1560.13,0.01199245
1558.201,0.0127291
1556.273,0.0134638
1554.344,0.01415067
1552.416,0.01476928
1550.487,0.01527499
1548.559,0.01559745
1546.63,0.01571454
1544.702,0.01564895
1542.773,0.01543134
1540.845,0.015102
1538.917,0.01470161
1536.988,0.01425121
1535.06,0.01375366
1533.131,0.01321862
1531.203,0.01267017
1529.274,0.01212371
1527.346,0.01158207
1525.417,0.01105878
1523.489,0.01058312
1521.56,0.01018816
1519.632,0.009855631
1517.703,0.009473505
1515.775,0.008935152
1513.846,0.008259196
1511.918,0.00754981
1509.99,0.006880634
1508.061,0.006271705
1506.133,0.005739165
1504.204,0.005289784
1502.276,0.004907281
1500.347,0.004575863
1498.419,0.004275308
1496.49,0.003985384
1494.562,0.003716646
1492.633,0.003489066
1490.705,0.003304641
1488.776,0.003173877
1486.848,0.00311242
1484.919,0.003112994
1482.991,0.003166602
1481.063,0.003285026
1479.134,0.003477114
1477.206,0.003737063
1475.277,0.004064053
1473.349,0.004456301
1471.42,0.00489173
1469.492,0.00533027
1467.563,0.005736857
1465.635,0.006121745
1463.706,0.006526132
1461.778,0.006969114
1459.849,0.007432719
1457.921,0.007866031
1455.992,0.008190263
1454.064,0.008338721
1452.135,0.008318034
1450.207,0.008194114
1448.279,0.008015354
1446.35,0.007804249
1444.422,0.007581919
1442.493,0.007352358
1440.565,0.007100947
1438.636,0.006824699
1436.708,0.006543607
1434.779,0.006290535
1432.851,0.006094915
1430.922,0.005973675
1428.994,0.005928694
1427.065,0.005944597
1425.137,0.005987428
1423.208,0.006019028
1421.28,0.00601223
1419.352,0.005950266
1417.423,0.005826915
1415.495,0.005654371
1413.566,0.00545846
1411.638,0.005259913
1409.709,0.005071671
1407.781,0.004902987
1405.852,0.004755725
1403.924,0.004625256
1401.995,0.004504948
1400.067,0.004395238
1398.138,0.004304666
1396.21,0.004235312
1394.281,0.00418369
1392.353,0.004146133
1390.425,0.004105261
1388.496,0.004038708
1386.568,0.003943535
1384.639,0.003827751
1382.711,0.003696281
1380.782,0.003565086
1378.854,0.003459136
1376.925,0.003387569
1374.997,0.003345516
1373.068,0.003330543
1371.14,0.003336855
1369.211,0.003351072
1367.283,0.00336135
1365.354,0.003365629
1363.426,0.003377551
1361.498,0.003407005
1359.569,0.003440663
1357.641,0.003466572
1355.712,0.003487239
1353.784,0.003501774
1351.855,0.00350715
1349.927,0.003504644
1347.998,0.003501748
1346.07,0.003505088
1344.141,0.003497442
1342.213,0.003464224
1340.284,0.003422555
1338.356,0.003389578
1336.427,0.003368785
1334.499,0.003368394
1332.571,0.003395578
1330.642,0.003443402
1328.714,0.00350882
1326.785,0.003593536
1324.857,0.003684768
1322.928,0.003764792
1321,0.003824121
1319.071,0.003862851
1317.143,0.003882649
1315.214,0.003882205
1313.286,0.003863765
1311.357,0.003830624
1309.429,0.003789834
1307.5,0.003757559
1305.572,0.003749805
1303.644,0.003764688
1301.715,0.003785525
1299.787,0.003802237
1297.858,0.003820622
1295.93,0.003854572
1294.001,0.003898555
1292.073,0.003933661
1290.144,0.003964303
1288.216,0.003997768
1286.287,0.004020263
1284.359,0.004019531
1282.43,0.004002497
1280.502,0.003984862
1278.573,0.003978723
1276.645,0.003990923
1274.717,0.004023606
1272.788,0.004078163
1270.86,0.004153058
1268.931,0.004241769
1267.003,0.004341217
1265.074,0.004450704
1263.146,0.004570055
1261.217,0.004700664
1259.289,0.004840265
1257.36,0.004987504
1255.432,0.005141106
1253.503,0.005293583
1251.575,0.005438774
1249.646,0.005572005
1247.718,0.005684269
1245.79,0.005757212
1243.861,0.00576697
1241.933,0.005705749
1240.004,0.005582205
1238.076,0.00540643
1236.147,0.005192869
1234.219,0.004957969
1232.29,0.004712675
1230.362,0.004462839
1228.433,0.004219864
1226.505,0.004002758
1224.576,0.003822607
1222.648,0.003682601
1220.719,0.003581451
1218.791,0.003520981
1216.863,0.003514091
1214.934,0.003560336
1213.006,0.003636369
1211.077,0.003717873
1209.149,0.003785447
1207.22,0.003825453
1205.292,0.003837205
1203.363,0.003824304
1201.435,0.003790043
1199.506,0.003740353
1197.578,0.003678216
1195.649,0.00360502
1193.721,0.003528966
1191.792,0.003457701
1189.864,0.003381255
1187.936,0.003283957
1186.007,0.003167123
1184.079,0.003048157
1182.15,0.002948614
1180.222,0.00287773
1178.293,0.002826034
1176.365,0.002776116
1174.436,0.002718206
1172.508,0.002655981
1170.579,0.002596082
1168.651,0.002542987
1166.722,0.002507342
1164.794,0.002498985
1162.865,0.002501927
1160.937,0.002487556
1159.009,0.002462147
1157.08,0.002448479
1155.152,0.002436765
1153.223,0.002411229
1151.295,0.002383482
1149.366,0.002366277
1147.438,0.002358834
1145.509,0.002366772
1143.581,0.002402951
1141.652,0.002466677
1139.724,0.002536348
1137.795,0.002594155
1135.867,0.002644495
1133.938,0.002690361
1132.01,0.002718779
1130.082,0.002724353
1128.153,0.002709402
1126.225,0.00266718
1124.296,0.002602123
1122.368,0.002531609
1120.439,0.002458945
1118.511,0.002381946
1116.582,0.002314824
1114.654,0.002274176
1112.725,0.002254009
1110.797,0.002234833
1108.868,0.002217296
1106.94,0.002209699
1105.011,0.002204443
1103.083,0.002199578
1101.155,0.002198745
1099.226,0.002195181
1097.298,0.002184072
1095.369,0.002170023
1093.441,0.00216893
1091.512,0.002193828
1089.584,0.002232621
1087.655,0.002264028
1085.727,0.002284663
1083.798,0.002299288
1081.87,0.002302931
1079.941,0.002287656
1078.013,0.002247296
1076.084,0.002178478
1074.156,0.002092659
1072.228,0.00199968
1070.299,0.001904043
1068.371,0.001816848
1066.442,0.001747137
1064.514,0.001709608
1062.585,0.00172754
1060.657,0.001793038
1058.728,0.00185618
1056.8,0.001887403
1054.871,0.001902275
1052.943,0.001906591
1051.014,0.001897959
1049.086,0.001887221
1047.157,0.001871336
1045.229,0.00184014
1043.301,0.001795559
1041.372,0.001743472
1039.444,0.00169256
1037.515,0.001653841
1035.587,0.001637575
1033.658,0.001631885
1031.73,0.00160689
1029.801,0.00155576
1027.873,0.001494532
1025.944,0.00143256
1024.016,0.001374517
1022.087,0.001329517
1020.159,0.00129688
1018.23,0.001263804
1016.302,0.001228576
1014.374,0.001198698
1012.445,0.001170846
1010.517,0.001139051
1008.588,0.001104767
1006.66,0.001069682
1004.731,0.001036675
1002.803,0.001008575
1000.874,0.000987455
998.946,0.000976247
997.017,0.00097098
995.089,0.000965791
993.16,0.000967452
991.232,0.000975546
989.303,0.00097002
987.375,0.000943896
985.447,0.00090405
983.518,0.000849061
981.59,0.000788347
979.661,0.000737392
977.733,0.000686235
975.804,0.000622382
973.876,0.000556361
971.947,0.000500768
970.019,0.000460756
968.09,0.00043575
966.162,0.000410823
964.233,0.000379499
962.305,0.000355482
960.376,0.000346881
958.448,0.000347606
956.52,0.000346311
954.591,0.000337529
952.663,0.000323592
950.734,0.000307323
948.806,0.000286652
946.877,0.000260543
944.949,0.000240625
943.02,0.000238682
941.092,0.000249975
939.163,0.000269168
937.235,0.000295796
935.306,0.000311054
933.378,0.000302376
931.449,0.0002916
929.521,0.000287714
927.593,0.000285901
925.664,0.000296133
923.736,0.000320509
921.807,0.000339265
919.879,0.000334498
917.95,0.000321623
916.022,0.000316649
914.093,0.000308126
912.165,0.000297454
910.236,0.000295641
908.308,0.000294631
906.379,0.000286963
904.451,0.000272276
902.522,0.000249043
900.594,0.000230835
898.666,0.000230369
896.737,0.000241557
894.809,0.000264842
892.88,0.000289838
890.952,0.000293905
889.023,0.000290434
887.095,0.000308489
885.166,0.00033929
883.238,0.000355638
881.309,0.000366752
879.381,0.000389007
877.452,0.000404527
875.524,0.000400796
873.595,0.000395277
871.667,0.00040191
869.739,0.000396677
867.81,0.000355223
865.882,0.000306961
863.953,0.000296288
862.025,0.000322167
860.096,0.000360042
858.168,0.000396858
856.239,0.000413129
854.311,0.000402144
852.382,0.000381338
850.454,0.000368928
848.525,0.000389629
846.597,0.00042751
844.668,0.000434869
842.74,0.00044044
840.812,0.000479803
838.883,0.000505666
836.955,0.000498954
835.026,0.000498254
833.098,0.000502193
831.169,0.000499602
829.241,0.000508802
827.312,0.000551099
825.384,0.000624793
823.455,0.00066272
821.527,0.000639414
819.598,0.000657587
817.67,0.000742604
815.741,0.000800355
813.813,0.000842499
811.885,0.000936502
809.956,0.001020017
808.028,0.001024194
806.099,0.000986417
804.171,0.000956063
802.242,0.000960525
800.314,0.00101257
798.385,0.001108712
796.457,0.001203681
794.528,0.001224085
792.6,0.001172845
790.671,0.00113059
788.743,0.001153145
786.814,0.001203785
784.886,0.001190365
782.958,0.001120806
781.029,0.001102198
779.101,0.001143412
777.172,0.001174454
775.244,0.001174428
773.315,0.001163916
771.387,0.001188237
769.458,0.001238648
767.53,0.001257236
765.601,0.001249058
763.673,0.001263986
761.744,0.00132274
759.816,0.001372856
757.887,0.001380516
755.959,0.001391371
754.031,0.001421262
752.102,0.001439312
750.174,0.001434638
748.245,0.001445286
746.317,0.001483623
744.388,0.001539004
742.46,0.001608656
740.531,0.001621596
738.603,0.001527834
736.674,0.001374907
734.746,0.00127476
732.817,0.001338787
730.889,0.001500143
728.96,0.001594211
727.032,0.001611904
725.104,0.001589014
723.175,0.001441754
721.247,0.001240076
719.318,0.001256639
717.39,0.001477649
715.461,0.001600342
713.533,0.001531938
711.604,0.001412588
709.676,0.00129797
707.747,0.001216193
705.819,0.001304773
703.89,0.001543213
701.962,0.001687805
700.033,0.001664755
698.105,0.001596003
696.177,0.001507572
694.248,0.001345564
692.32,0.001098799
690.391,0.00090737
688.463,0.000924958
686.534,0.000900444
684.606,0.000635603
682.677,0.000627826
680.749,0.001068696
678.82,0.00116171
676.892,0.000625778
674.963,0.000374239
673.035,0.000728809
671.106,0.00038994
669.178,-0.001328918
667.25,-0.001884133
665.321,0.000166323
663.393,0.001744875
661.464,0.001621648
659.536,0.000973756
657.607,0.000679883
655.679,0.000906592
653.75,0.001487701
651.822,0.001673746
649.893,0.001567633
647.965,0.002347798
646.036,0.003786204
644.108,0.004551351
642.179,0.00385371
640.251,0.001920865
638.323,0.00045819
636.394,0.000433496
634.466,0.000819909
632.537,0.000826497
630.609,0.000836378
628.68,0.001891147
626.752,0.004252722
624.823,0.006401908
622.895,0.007135444
620.966,0.006992657
619.038,0.006157819
617.109,0.004942311
615.181,0.005246551
613.252,0.006280503
611.324,0.005255905
609.396,0.003444133
607.467,0.003120529
605.539,0.004568799
603.61,0.00842003
601.682,0.01256144
599.753,0.01263088
597.825,0.0103626
595.896,0.01048886
593.968,0.0115868
592.039,0.01045948
590.111,0.0092797
588.182,0.01041369
586.254,0.01212313
584.325,0.01183359
582.397,0.01087663
580.469,0.01401376
578.54,0.01864919
576.612,0.01871915
574.683,0.01834573
572.755,0.02023822
570.826,0.02139888
568.898,0.02097169
566.969,0.01785259
565.041,0.0135957
563.112,0.01148669
561.184,0.01202563
559.255,0.01492694
557.327,0.01810777
555.398,0.02086217
553.47,0.02497294
551.542,0.02714707
549.613,0.02323718
547.685,0.01808888
545.756,0.01805752
543.828,0.02051312
541.899,0.02035339
539.971,0.01891571
538.042,0.01958837
536.114,0.02197394
534.185,0.02486852
532.257,0.02677878
530.328,0.02443848
528.4,0.01848074
526.471,0.01396519
524.543,0.0126465
522.615,0.01357235
520.686,0.01893828
518.758,0.02678324
516.829,0.02856467
514.901,0.02366562
512.972,0.0201836
511.044,0.02084514
509.115,0.02207407
507.187,0.02222588
505.258,0.02077253
503.33,0.01699795
501.401,0.01228766
499.473,0.009782102
497.544,0.01339711
495.616,0.01995774
493.688,0.02092459
491.759,0.01728864
489.831,0.01573317
487.902,0.01837903
485.974,0.02241424
484.045,0.02291538
482.117,0.01881048
480.188,0.01289704
478.26,0.009302628
476.331,0.01082512
474.403,0.01427491
472.474,0.0153449
470.546,0.01368016
468.617,0.01135317
466.689,0.01022519
464.76,0.009662872
462.832,0.01056193
460.904,0.01504749
458.975,0.01980155
457.047,0.0201916
455.118,0.01749126
453.19,0.01519823
451.261,0.01386062
449.333,0.01422454
447.404,0.01844012
445.476,0.02273005
443.547,0.02061767
441.619,0.01518405
439.69,0.01444494
437.762,0.01944165
435.833,0.02485402
433.905,0.02625751
431.977,0.02431929
430.048,0.02099519
428.12,0.01707382
426.191,0.01531626
424.263,0.01653304
422.334,0.01787387
420.406,0.0196927
418.477,0.02217238
416.549,0.02173474
414.62,0.01929446
412.692,0.01844225
410.763,0.01918211
408.835,0.02137204
406.906,0.02370977
404.978,0.02377631
403.05,0.02197179
401.121,0.01907321
399.193,0.01614158
