Wavenumbers [1/cm],Absorbance
3997.712,0.000118936
3995.783,0.000124452
3993.855,0.000121526
3991.926,0.000119998
3989.998,0.000126083
3988.069,0.000128439
3986.141,0.000122769
3984.212,0.000123053
3982.284,0.000132764
3980.355,0.000134524
3978.427,0.000121422
3976.499,0.00010555
3974.57,9.04E-05
3972.642,8.57E-05
3970.713,0.000106456
3968.785,0.0001302
3966.856,0.000128206
3964.928,0.000115027
3962.999,0.000112437
3961.071,0.000113395
3959.142,0.000109796
3957.214,0.000107854
3955.285,0.000105446
3953.357,9.07E-05
3951.428,7.43E-05
3949.5,8.31E-05
3947.572,0.000111169
3945.643,0.000122121
3943.715,0.000113499
3941.786,0.00011368
3939.858,0.000119661
3937.929,0.000112903
3936.001,0.000101433
3934.072,1.00E-04
3932.144,0.00010643
3930.215,0.000107828
3928.287,9.74E-05
3926.358,8.39E-05
3924.43,7.55E-05
3922.501,7.22E-05
3920.573,7.13E-05
3918.645,6.70E-05
3916.716,6.57E-05
3914.788,7.76E-05
3912.859,8.75E-05
3910.931,8.17E-05
3909.002,7.52E-05
3907.074,7.55E-05
3905.145,6.77E-05
3903.217,5.55E-05
3901.288,5.55E-05
3899.36,6.45E-05
3897.431,7.17E-05
3895.503,7.20E-05
3893.574,6.36E-05
3891.646,5.32E-05
3889.718,4.62E-05
3887.789,4.10E-05
3885.861,3.68E-05
3883.932,3.98E-05
3882.004,5.52E-05
3880.075,7.30E-05
3878.147,7.73E-05
3876.218,6.55E-05
3874.29,4.80E-05
3872.361,3.30E-05
3870.433,2.48E-05
3868.504,2.60E-05
3866.576,3.01E-05
3864.647,3.15E-05
3862.719,3.19E-05
3860.791,2.74E-05
3858.862,2.02E-05
3856.934,2.08E-05
3855.005,2.31E-05
3853.077,2.35E-05
3851.148,3.07E-05
3849.22,3.94E-05
3847.291,4.45E-05
3845.363,4.66E-05
3843.434,4.01E-05
3841.506,3.55E-05
3839.577,4.90E-05
3837.649,6.63E-05
3835.72,6.39E-05
3833.792,4.03E-05
3831.864,1.13E-05
3829.935,3.11E-07
3828.007,1.27E-05
3826.078,2.76E-05
3824.15,2.99E-05
3822.221,2.26E-05
3820.293,1.50E-05
3818.364,7.64E-06
3816.436,-3.37E-06
3814.507,-9.32E-06
3812.579,-5.80E-06
3810.65,-1.92E-06
3808.722,-1.11E-05
3806.793,-3.40E-05
3804.865,-4.83E-05
3802.937,-4.18E-05
3801.008,-2.85E-05
3799.08,-1.91E-05
3797.151,-1.29E-05
3795.223,-2.95E-06
3793.294,1.63E-05
3791.366,2.68E-05
3789.437,1.20E-05
3787.509,-1.33E-05
3785.58,-2.79E-05
3783.652,-3.19E-05
3781.723,-3.61E-05
3779.795,-3.50E-05
3777.866,-2.24E-05
3775.938,-1.03E-05
3774.01,-1.21E-05
3772.081,-2.70E-05
3770.153,-3.39E-05
3768.224,-3.00E-05
3766.296,-3.35E-05
3764.367,-4.06E-05
3762.439,-4.79E-05
3760.51,-5.65E-05
3758.582,-5.30E-05
3756.653,-4.45E-05
3754.725,-5.69E-05
3752.796,-9.12E-05
3750.868,-0.0001188
3748.939,-0.000129773
3747.011,-0.000152131
3745.083,-0.000203675
3743.154,-0.000264215
3741.226,-0.000323092
3739.297,-0.000404306
3737.369,-0.000514205
3735.44,-0.000618131
3733.512,-0.000692105
3731.583,-0.000748805
3729.655,-0.000792629
3727.726,-0.000807202
3725.798,-0.000795058
3723.869,-0.000762087
3721.941,-0.000688228
3720.012,-0.000572686
3718.084,-0.000448683
3716.156,-0.000357649
3714.227,-0.000352838
3712.299,-0.000441235
3710.37,-0.000560173
3708.442,-0.000666259
3706.513,-0.000753146
3704.585,-0.000820689
3702.656,-0.000855826
3700.728,-0.000842702
3698.799,-0.000820173
3696.871,-0.000832213
3694.942,-0.000851693
3693.014,-0.000851641
3691.085,-0.00085159
3689.157,-0.000861562
3687.229,-0.000863474
3685.3,-0.000849936
3683.372,-0.000846216
3681.443,-0.000871224
3679.515,-0.000902947
3677.586,-0.000923457
3675.658,-0.000941229
3673.729,-0.000961582
3671.801,-0.000994952
3669.872,-0.001051198
3667.944,-0.001118334
3666.015,-0.00116997
3664.087,-0.001203065
3662.158,-0.001247825
3660.23,-0.001295006
3658.302,-0.001314311
3656.373,-0.00134146
3654.445,-0.00140917
3652.516,-0.001478262
3650.588,-0.001524077
3648.659,-0.001561324
3646.731,-0.001588406
3644.802,-0.001616827
3642.874,-0.0016683
3640.945,-0.001723687
3639.017,-0.001777571
3637.088,-0.001850987
3635.16,-0.001925369
3633.231,-0.001977167
3631.303,-0.002033957
3629.375,-0.002109236
3627.446,-0.002166987
3625.518,-0.002210978
3623.589,-0.002255531
3621.661,-0.002238174
3619.732,-0.00213005
3617.804,-0.001997472
3615.875,-0.001896607
3613.947,-0.001857894
3612.018,-0.001898721
3610.09,-0.001976961
3608.161,-0.002039367
3606.233,-0.002085999
3604.304,-0.002128556
3602.376,-0.002162969
3600.448,-0.002174405
3598.519,-0.002145299
3596.591,-0.002091924
3594.662,-0.002032205
3592.734,-0.001982217
3590.805,-0.001978301
3588.877,-0.001980826
3586.948,-0.001942687
3585.02,-0.001921504
3583.091,-0.001934235
3581.163,-0.001924339
3579.234,-0.001897226
3577.306,-0.001892638
3575.377,-0.001908412
3573.449,-0.001938358
3571.521,-0.001960108
3569.592,-0.001935987
3567.664,-0.00189202
3565.735,-0.001867741
3563.807,-0.001852018
3561.878,-0.00184413
3559.95,-0.001853049
3558.021,-0.001842223
3556.093,-0.001806856
3554.164,-0.001810929
3552.236,-0.001854544
3550.307,-0.001897278
3548.379,-0.00194511
3546.45,-0.001978558
3544.522,-0.001969024
3542.594,-0.001947532
3540.665,-0.001925163
3538.737,-0.001869906
3536.808,-0.001832376
3534.88,-0.001889752
3532.951,-0.001989536
3531.023,-0.002042408
3529.094,-0.002041377
3527.166,-0.002040501
3525.237,-0.002082856
3523.309,-0.002133244
3521.38,-0.002149884
3519.452,-0.002159105
3517.523,-0.002169563
3515.595,-0.002143753
3513.667,-0.00211583
3511.738,-0.002167296
3509.81,-0.002264699
3507.881,-0.002318
3505.953,-0.002356415
3504.024,-0.002473543
3502.096,-0.002624501
3500.167,-0.002667366
3498.239,-0.002626045
3496.31,-0.002637212
3494.382,-0.002678377
3492.453,-0.002679303
3490.525,-0.002704
3488.596,-0.002779266
3486.668,-0.002866502
3484.74,-0.002995936
3482.811,-0.003117209
3480.883,-0.003112634
3478.954,-0.003082152
3477.026,-0.003146712
3475.097,-0.003203504
3473.169,-0.003224471
3471.24,-0.003278734
3469.312,-0.003332477
3467.383,-0.003387189
3465.455,-0.003450472
3463.526,-0.00345792
3461.598,-0.003438813
3459.669,-0.003491919
3457.741,-0.003644475
3455.813,-0.00383131
3453.884,-0.0039898
3451.956,-0.004139412
3450.027,-0.004282616
3448.099,-0.004335312
3446.17,-0.004262981
3444.242,-0.00418787
3442.313,-0.004226632
3440.385,-0.004368167
3438.456,-0.004599516
3436.528,-0.004849942
3434.599,-0.004965887
3432.671,-0.00494828
3430.742,-0.004969163
3428.814,-0.005157578
3426.885,-0.005392905
3424.957,-0.005473176
3423.029,-0.005446387
3421.1,-0.005447
3419.172,-0.005527108
3417.243,-0.005709456
3415.315,-0.005874566
3413.386,-0.005910114
3411.458,-0.0060124
3409.529,-0.006313142
3407.601,-0.006523415
3405.672,-0.006445174
3403.744,-0.006305692
3401.815,-0.00638503
3399.887,-0.00664437
3397.958,-0.006809533
3396.03,-0.006843985
3394.102,-0.006966685
3392.173,-0.007224355
3390.245,-0.007456377
3388.316,-0.00753698
3386.388,-0.007525227
3384.459,-0.007521614
3382.531,-0.007526956
3380.602,-0.007588062
3378.674,-0.007753833
3376.745,-0.007918879
3374.817,-0.007919184
3372.888,-0.007784244
3370.96,-0.00772459
3369.031,-0.007814144
3367.103,-0.007954819
3365.175,-0.008077715
3363.246,-0.008192446
3361.318,-0.008272049
3359.389,-0.008205401
3357.461,-0.008025064
3355.532,-0.008014238
3353.604,-0.008222877
3351.675,-0.008295871
3349.747,-0.008220438
3347.818,-0.008325076
3345.89,-0.008486606
3343.961,-0.008436594
3342.033,-0.008325584
3340.104,-0.008345746
3338.176,-0.008445581
3336.248,-0.008578947
3334.319,-0.008709886
3332.391,-0.008666954
3330.462,-0.00846843
3328.534,-0.008417908
3326.605,-0.008635185
3324.677,-0.00884246
3322.748,-0.008761236
3320.82,-0.00853052
3318.891,-0.008466704
3316.963,-0.008550216
3315.034,-0.008531738
3313.106,-0.008353822
3311.177,-0.008153833
3309.249,-0.008079951
3307.321,-0.008125633
3305.392,-0.008162165
3303.464,-0.008145653
3301.535,-0.008101039
3299.607,-0.008041378
3297.678,-0.007922692
3295.75,-0.007717876
3293.821,-0.007532503
3291.893,-0.007446249
3289.964,-0.007510114
3288.036,-0.007728404
3286.107,-0.007863414
3284.179,-0.007734914
3282.25,-0.007540338
3280.322,-0.007462993
3278.394,-0.007403651
3276.465,-0.007368226
3274.537,-0.007468387
3272.608,-0.007620367
3270.68,-0.00772403
3268.751,-0.007795075
3266.823,-0.007807431
3264.894,-0.007741983
3262.966,-0.007695243
3261.037,-0.007751951
3259.109,-0.007864786
3257.18,-0.00793108
3255.252,-0.007937027
3253.323,-0.007947753
3251.395,-0.008018508
3249.467,-0.008186044
3247.538,-0.008413745
3245.61,-0.008623054
3243.681,-0.008717244
3241.753,-0.008587372
3239.824,-0.008326245
3237.896,-0.008150429
3235.967,-0.008157695
3234.039,-0.008274386
3232.11,-0.008373069
3230.182,-0.008482341
3228.253,-0.00857585
3226.325,-0.00849021
3224.396,-0.008295313
3222.468,-0.008182844
3220.54,-0.008166535
3218.611,-0.008221149
3216.683,-0.008321724
3214.754,-0.008330967
3212.826,-0.008210177
3210.897,-0.008100937
3208.969,-0.008024301
3207.04,-0.007922895
3205.112,-0.007884665
3203.183,-0.007913491
3201.255,-0.007842771
3199.326,-0.007721385
3197.398,-0.007749357
3195.469,-0.007859804
3193.541,-0.007875005
3191.613,-0.007812161
3189.684,-0.007681916
3187.756,-0.00745312
3185.827,-0.007328216
3183.899,-0.007427979
3181.97,-0.007520291
3180.042,-0.007467573
3178.113,-0.007361405
3176.185,-0.00728474
3174.256,-0.007284282
3172.328,-0.007312638
3170.399,-0.007301794
3168.471,-0.007302609
3166.542,-0.007326485
3164.614,-0.007279343
3162.686,-0.00716055
3160.757,-0.007074377
3158.829,-0.007046056
3156.9,-0.00703169
3154.972,-0.007039433
3153.043,-0.007063374
3151.115,-0.007018446
3149.186,-0.00689153
3147.258,-0.006772836
3145.329,-0.006684902
3143.401,-0.006598226
3141.472,-0.006508727
3139.544,-0.006417373
3137.615,-0.006351051
3135.687,-0.00631156
3133.759,-0.00625104
3131.83,-0.006154834
3129.902,-0.006065652
3127.973,-0.006033691
3126.045,-0.006022816
3124.116,-0.005932432
3122.188,-0.005754061
3120.259,-0.005574236
3118.331,-0.00544245
3116.402,-0.005331541
3114.474,-0.005199067
3112.545,-0.005051765
3110.617,-0.004927447
3108.688,-0.004823472
3106.76,-0.004719626
3104.832,-0.0046072
3102.903,-0.004465077
3100.975,-0.004290562
3099.046,-0.004110489
3097.118,-0.003952864
3095.189,-0.00380175
3093.261,-0.003625171
3091.332,-0.003458536
3089.404,-0.003341725
3087.475,-0.003235674
3085.547,-0.003086573
3083.618,-0.002917416
3081.69,-0.002777825
3079.761,-0.002641534
3077.833,-0.002470506
3075.905,-0.002298174
3073.976,-0.00215179
3072.048,-0.00201355
3070.119,-0.001893154
3068.191,-0.001808815
3066.262,-0.001723996
3064.334,-0.00162018
3062.405,-0.001542907
3060.477,-0.001515513
3058.548,-0.001507207
3056.62,-0.001476663
3054.691,-0.001430894
3052.763,-0.001407105
3050.834,-0.001389766
3048.906,-0.001347653
3046.978,-0.001308014
3045.049,-0.001294903
3043.121,-0.001269454
3041.192,-0.001215456
3039.264,-0.00118484
3037.335,-0.001192946
3035.407,-0.001192326
3033.478,-0.001163619
3031.55,-0.001131553
3029.621,-0.001116269
3027.693,-0.001117146
3025.764,-0.001116217
3023.836,-0.001089777
3021.907,-0.001050837
3019.979,-0.001034878
3018.051,-0.00103307
3016.122,-0.001003991
3014.194,-0.000937199
3012.265,-0.000853656
3010.337,-0.000785808
3008.408,-0.000765446
3006.48,-0.000763741
3004.551,-0.000714589
3002.623,-0.000625782
3000.694,-0.000542386
2998.766,-0.00045825
2996.837,-0.000349165
2994.909,-0.000231307
2992.98,-0.000130705
2991.052,-1.93E-05
2989.124,0.000126549
2987.195,0.000270541
2985.267,0.000405123
2983.338,0.000560819
2981.41,0.000727435
2979.481,0.000879927
2977.553,0.001024583
2975.624,0.001174636
2973.696,0.001337878
2971.767,0.001513521
2969.839,0.001684141
2967.91,0.001843052
2965.982,0.00200873
2964.053,0.002181808
2962.125,0.002318285
2960.197,0.002386111
2958.268,0.00240722
2956.34,0.002404721
2954.411,0.002369921
2952.483,0.002301682
2950.554,0.002230514
2948.626,0.002195233
2946.697,0.002207695
2944.769,0.002258199
2942.84,0.002348032
2940.912,0.002476101
2938.983,0.002631187
2937.055,0.002806233
2935.126,0.002976762
2933.198,0.003112577
2931.27,0.003218834
2929.341,0.003314214
2927.413,0.003385325
2925.484,0.003396961
2923.556,0.00334189
2921.627,0.003239306
2919.699,0.003076833
2917.77,0.002836118
2915.842,0.002570823
2913.913,0.002353524
2911.985,0.002192553
2910.056,0.002058846
2908.128,0.001934333
2906.199,0.001824023
2904.271,0.001744902
2902.343,0.001698018
2900.414,0.001664339
2898.486,0.001629546
2896.557,0.001597926
2894.629,0.001574751
2892.7,0.001558176
2890.772,0.001546875
2888.843,0.001533367
2886.915,0.00151365
2884.986,0.001500195
2883.058,0.001501364
2881.129,0.001511079
2879.201,0.001525937
2877.272,0.001547317
2875.344,0.001564281
2873.416,0.00155311
2871.487,0.001503831
2869.559,0.00143017
2867.63,0.001359482
2865.702,0.001323519
2863.773,0.001342656
2861.845,0.001411497
2859.916,0.001507312
2857.988,0.001611462
2856.059,0.001699551
2854.131,0.001722888
2852.202,0.001649866
2850.274,0.001504221
2848.345,0.001343669
2846.417,0.001203604
2844.489,0.001080763
2842.56,0.000970098
2840.632,0.00087269
2838.703,0.000789125
2836.775,0.000725905
2834.846,0.000686546
2832.918,0.000666557
2830.989,0.000657457
2829.061,0.000653517
2827.132,0.000657898
2825.204,0.000670654
2823.275,0.000677602
2821.347,0.000666402
2819.418,0.000646128
2817.49,0.000633659
2815.562,0.000625337
2813.633,0.00060968
2811.705,0.000597808
2809.776,0.000598896
2807.848,0.00060307
2805.919,0.000602681
2803.991,0.000592883
2802.062,0.000579741
2800.134,0.00057199
2798.205,0.000554132
2796.277,0.000523963
2794.348,0.000510357
2792.42,0.000514452
2790.491,0.000511627
2788.563,0.000502193
2786.635,0.00049631
2784.706,0.000488562
2782.778,0.000478636
2780.849,0.00047094
2778.921,0.000463451
2776.992,0.000459952
2775.064,0.000465524
2773.135,0.000466742
2771.207,0.00044811
2769.278,0.000419426
2767.35,0.000400952
2765.421,0.000394137
2763.493,0.000393256
2761.564,0.00039634
2759.636,0.000396184
2757.708,0.00038779
2755.779,0.000374473
2753.851,0.000363617
2751.922,0.000356285
2749.994,0.00034328
2748.065,0.000328928
2746.137,0.000322193
2744.208,0.000317841
2742.28,0.000316001
2740.351,0.000320587
2738.423,0.000324498
2736.494,0.000320017
2734.566,0.000309033
2732.637,0.000295459
2730.709,0.000277949
2728.781,0.000260983
2726.852,0.000255285
2724.924,0.00025974
2722.995,0.000261553
2721.067,0.000254741
2719.138,0.000240444
2717.21,0.000221381
2715.281,0.000207085
2713.353,0.000204884
2711.424,0.000213534
2709.496,0.000225733
2707.567,0.000230576
2705.639,0.000222676
2703.71,0.000208044
2701.782,0.000194628
2699.854,0.000184037
2697.925,0.000174481
2695.997,0.000170052
2694.068,0.000173781
2692.14,0.000174273
2690.211,0.000163553
2688.283,0.000149828
2686.354,0.000144597
2684.426,0.00014843
2682.497,0.000150346
2680.569,0.000148533
2678.64,0.000147938
2676.712,0.000145918
2674.783,0.000140868
2672.855,0.000134421
2670.927,0.000132997
2668.998,0.000140143
2667.07,0.000151304
2665.141,0.000157156
2663.213,0.000147679
2661.284,0.000131806
2659.356,0.000129812
2657.427,0.000132116
2655.499,0.00011658
2653.57,9.51E-05
2651.642,9.25E-05
2649.713,0.000112204
2647.785,0.000142474
2645.856,0.000159487
2643.928,0.000144856
2642,0.000113214
2640.071,8.72E-05
2638.143,7.24E-05
2636.214,7.15E-05
2634.286,8.18E-05
2632.357,8.27E-05
2630.429,6.58E-05
2628.5,4.82E-05
2626.572,3.51E-05
2624.643,2.52E-05
2622.715,3.33E-05
2620.786,5.66E-05
2618.858,6.58E-05
2616.929,4.65E-05
2615.001,2.57E-05
2613.073,3.11E-05
2611.144,4.22E-05
2609.216,3.67E-05
2607.287,2.91E-05
2605.359,1.88E-05
2603.43,-7.35E-06
2601.502,-2.26E-05
2599.573,1.32E-06
2597.645,2.97E-05
2595.716,1.90E-05
2593.788,-1.02E-05
2591.859,-1.28E-05
2589.931,3.93E-06
2588.002,-3.73E-06
2586.074,-3.58E-05
2584.146,-5.20E-05
2582.217,-4.48E-05
2580.289,-3.40E-05
2578.36,-2.25E-05
2576.432,-2.65E-05
2574.503,-4.77E-05
2572.575,-4.36E-05
2570.646,-3.50E-05
2568.718,-5.97E-05
2566.789,-6.21E-05
2564.861,-2.12E-05
2562.932,9.58E-07
2561.004,-2.92E-05
2559.075,-8.83E-05
2557.147,-0.000115074
2555.219,-8.23E-05
2553.29,-4.32E-05
2551.362,-2.89E-05
2549.433,-4.01E-05
2547.505,-8.70E-05
2545.576,-0.000128634
2543.648,-0.000133655
2541.719,-0.000116834
2539.791,-8.31E-05
2537.862,-6.34E-05
2535.934,-7.98E-05
2534.005,-0.000103273
2532.077,-0.000108449
2530.148,-0.000102341
2528.22,-9.24E-05
2526.292,-6.55E-05
2524.363,-2.52E-05
2522.435,2.95E-06
2520.506,7.30E-06
2518.578,-2.38E-05
2516.649,-0.000106999
2514.721,-0.000194981
2512.792,-0.000206314
2510.864,-0.000144575
2508.935,-6.12E-05
2507.007,-1.24E-05
2505.078,-6.11E-05
2503.15,-0.00015917
2501.221,-0.000185977
2499.293,-0.000136553
2497.365,-9.26E-05
2495.436,-9.22E-05
2493.508,-0.000115902
2491.579,-0.000126409
2489.651,-0.000124856
2487.722,-0.000153425
2485.794,-0.000204296
2483.865,-0.000224322
2481.937,-0.000227375
2480.008,-0.000240621
2478.08,-0.000218009
2476.151,-0.000167346
2474.223,-0.000154201
2472.294,-0.000158756
2470.366,-0.000174333
2468.438,-0.00022308
2466.509,-0.000248383
2464.581,-0.000244191
2462.652,-0.00026287
2460.724,-0.000287498
2458.795,-0.000296242
2456.867,-0.000285222
2454.938,-0.000236119
2453.01,-0.000178007
2451.081,-0.000164655
2449.153,-0.000189548
2447.224,-0.000221838
2445.296,-0.000257644
2443.367,-0.000284187
2441.439,-0.000267268
2439.51,-0.00021687
2437.582,-0.000194567
2435.654,-0.000224115
2433.725,-0.000273839
2431.797,-0.0003114
2429.868,-0.000313728
2427.94,-0.00028517
2426.011,-0.000252832
2424.083,-0.00021449
2422.154,-0.000178214
2420.226,-0.00018075
2418.297,-0.000203261
2416.369,-0.000196223
2414.44,-0.000172056
2412.512,-0.000176817
2410.583,-0.000193222
2408.655,-0.000180957
2406.727,-0.000185563
2404.798,-0.000235602
2402.87,-0.000269079
2400.941,-0.000272804
2399.013,-0.000275339
2397.084,-0.000275184
2395.156,-0.000280927
2393.227,-0.000289309
2391.299,-0.000289981
2389.37,-0.0003293
2387.442,-0.000461871
2385.513,-0.000736607
2383.585,-0.001239875
2381.656,-0.00208332
2379.728,-0.003345732
2377.8,-0.004965376
2375.871,-0.006740672
2373.943,-0.008493206
2372.014,-0.01016537
2370.086,-0.01173322
2368.157,-0.0131178
2366.229,-0.0142544
2364.3,-0.01513777
2362.372,-0.01574188
2360.443,-0.01596641
2358.515,-0.01573015
2356.586,-0.01500416
2354.658,-0.0136865
2352.729,-0.01160783
2350.801,-0.009273134
2348.873,-0.008133458
2346.944,-0.008975297
2345.016,-0.01077542
2343.087,-0.01192386
2341.159,-0.01219351
2339.23,-0.01208612
2337.302,-0.01181485
2335.373,-0.01151245
2333.445,-0.01131497
2331.516,-0.01115252
2329.588,-0.01078825
2327.659,-0.01023409
2325.731,-0.009751627
2323.802,-0.009397329
2321.874,-0.008917278
2319.946,-0.008125277
2318.017,-0.007178629
2316.089,-0.006347531
2314.16,-0.005695354
2312.232,-0.005083081
2310.303,-0.004456109
2308.375,-0.003868257
2306.446,-0.003311772
2304.518,-0.002788011
2302.589,-0.002370575
2300.661,-0.00208806
2298.732,-0.001870318
2296.804,-0.001660255
2294.875,-0.00147238
2292.947,-0.001301768
2291.019,-0.001116475
2289.09,-0.000968969
2287.162,-0.000883314
2285.233,-0.000747513
2283.305,-0.000613788
2281.376,-0.000661555
2279.448,-0.000827975
2277.519,-0.00094159
2275.591,-0.000882849
2273.662,-0.000661607
2271.734,-0.000537578
2269.805,-0.000661607
2267.877,-0.000851486
2265.948,-0.000889876
2264.02,-0.000757281
2262.092,-0.000612858
2260.163,-0.000511309
2258.235,-0.000420185
2256.306,-0.000439373
2254.378,-0.000526357
2252.449,-0.000515963
2250.521,-0.000432598
2248.592,-0.000340526
2246.664,-0.000337888
2244.735,-0.000556347
2242.807,-0.00082813
2240.878,-0.000864042
2238.95,-0.000699238
2237.021,-0.000632193
2235.093,-0.000842909
2233.165,-0.001060443
2231.236,-0.0009015
2229.308,-0.00040022
2227.379,4.06E-05
2225.451,4.95E-05
2223.522,-0.000210661
2221.594,-0.000415426
2219.665,-0.000491865
2217.737,-0.000298259
2215.808,9.79E-06
2213.88,4.77E-05
2211.951,-0.000139555
2210.023,-0.000267941
2208.094,-0.00023524
2206.166,-0.000162792
2204.238,-0.000125374
2202.309,-0.00011202
2200.381,-0.000471335
2198.452,-0.001389302
2196.524,-0.001799947
2194.595,-0.000869519
2192.667,0.00021413
2190.738,0.000355871
2188.81,0.000118859
2186.881,-0.00016745
2184.953,-0.000821258
2183.024,-0.001417788
2181.096,-0.001463815
2179.167,-0.00147496
2177.239,-0.001792265
2175.311,-0.001786851
2173.382,-0.001314775
2171.454,-0.001144462
2169.525,-0.000922837
2167.597,-0.000149854
2165.668,1.18E-05
2163.74,-0.000834693
2161.811,-0.00173302
2159.883,-0.00196923
2157.954,-0.001259182
2156.026,-0.000812008
2154.097,-0.001194856
2152.169,-0.001578914
2150.24,-0.001504059
2148.312,-0.001118282
2146.384,-0.00082658
2144.455,-0.00097992
2142.527,-0.001549717
2140.598,-0.001727606
2138.67,-0.001084096
2136.741,-0.000201967
2134.813,0.000236351
2132.884,-5.75E-05
2130.956,-0.000588403
2129.027,-0.000808753
2127.099,-0.000856498
2125.17,-0.000845389
2123.242,-0.000731387
2121.313,-0.00067298
2119.385,-0.000718879
2117.457,-0.000766997
2115.528,-0.000847353
2113.6,-0.000979145
2111.671,-0.001061063
2109.743,-0.00101334
2107.814,-0.000782707
2105.886,-0.00045432
2103.957,-0.000272804
2102.029,-0.000337319
2100.1,-0.000511878
2098.172,-0.000571135
2096.243,-0.000456285
2094.315,-0.000379271
2092.386,-0.000472835
2090.458,-0.000661659
2088.53,-0.000838155
2086.601,-0.000923147
2084.673,-0.000955693
2082.744,-0.000883676
2080.816,-0.000628988
2078.887,-0.000517928
2076.959,-0.000809631
2075.03,-0.001113015
2073.102,-0.000976562
2071.173,-0.000669723
2069.245,-0.000775886
2067.316,-0.001097368
2065.388,-0.000915295
2063.459,-0.000248279
2061.531,0.000148585
2059.603,-5.80E-05
2057.674,-0.000355166
2055.746,-0.000346785
2053.817,-0.000389099
2051.889,-0.000647185
2049.96,-0.000701202
2048.032,-0.00038465
2046.103,0.000159176
2044.175,0.00040204
2042.246,-0.000379426
2040.318,-0.001441937
2038.389,-0.001648393
2036.461,-0.001574117
2034.532,-0.001903927
2032.604,-0.002203149
2030.676,-0.00175313
2028.747,-0.000553141
2026.819,0.000199627
2024.89,-4.87E-05
2022.962,-0.000188771
2021.033,0.000245961
2019.105,-0.000358373
2017.176,-0.002250999
2015.248,-0.002622134
2013.319,-0.000948151
2011.391,-0.000249987
2009.462,-0.001249425
2007.534,-0.002070902
2005.605,-0.00252018
2003.677,-0.003092947
2001.749,-0.003246619
1999.82,-0.002989406
1997.892,-0.002438279
1995.963,-0.001755244
1994.035,-0.001572363
1992.106,-0.001532125
1990.178,-0.000712987
1988.249,0.000276783
1986.321,-0.000115643
1984.392,-0.001441318
1982.464,-0.001790151
1980.535,-0.001303213
1978.607,-0.001352969
1976.678,-0.002094037
1974.75,-0.002609475
1972.822,-0.002156581
1970.893,-0.000969486
1968.965,-8.70E-05
1967.036,-0.000280669
1965.108,-0.001091223
1963.179,-0.001603364
1961.251,-0.001525934
1959.322,-0.001125615
1957.394,-0.000743275
1955.465,-0.000419306
1953.537,-0.000157151
1951.608,-0.000147473
1949.68,-0.000418944
1947.751,-0.000549832
1945.823,-0.000360701
1943.895,-0.000405961
1941.966,-0.001000685
1940.038,-0.001633332
1938.109,-0.001767516
1936.181,-0.001547292
1934.252,-0.001377483
1932.324,-0.00135813
1930.395,-0.00131333
1928.467,-0.001054091
1926.538,-0.000722652
1924.61,-0.000660108
1922.681,-0.000814644
1920.753,-0.000804722
1918.824,-0.000646409
1916.896,-0.000681147
1914.968,-0.000848799
1913.039,-0.000854276
1911.111,-0.000690658
1909.182,-0.000539801
1907.254,-0.00049652
1905.325,-0.000533855
1903.397,-0.000599054
1901.468,-0.000648735
1899.54,-0.00066414
1897.611,-0.00061658
1895.683,-0.000516894
1893.754,-0.000471335
1891.826,-0.000499054
1889.897,-0.000509758
1887.969,-0.000512964
1886.041,-0.000558209
1884.112,-0.000568653
1882.184,-0.000506035
1880.255,-0.00048235
1878.327,-0.000537061
1876.398,-0.00059285
1874.47,-0.000605878
1872.541,-0.000590575
1870.613,-0.00058344
1868.684,-0.000613737
1866.756,-0.000681457
1864.827,-0.000726219
1862.899,-0.000679544
1860.97,-0.000576305
1859.042,-0.000487573
1857.114,-0.000446097
1855.185,-0.000465129
1853.257,-0.000505
1851.328,-0.000504328
1849.4,-0.000474127
1847.471,-0.000478678
1845.543,-0.000524909
1843.614,-0.000552521
1841.686,-0.000554124
1839.757,-0.000544765
1837.829,-0.000514929
1835.9,-0.000491503
1833.972,-0.000498433
1832.043,-0.000522065
1830.115,-0.000535768
1828.187,-0.000535096
1826.258,-0.000552107
1824.33,-0.000574495
1822.401,-0.00055945
1820.473,-0.00052403
1818.544,-0.000514981
1816.616,-0.000542438
1814.687,-0.000574134
1812.759,-0.000584267
1810.83,-0.000575736
1808.902,-0.00056007
1806.973,-0.000538974
1805.045,-0.00051948
1803.116,-0.000524547
1801.188,-0.000543369
1799.26,-0.000541301
1797.331,-0.00052977
1795.403,-0.000534682
1793.474,-0.00054673
1791.546,-0.000548384
1789.617,-0.000545385
1787.689,-0.000553555
1785.76,-0.000567412
1783.832,-0.000573823
1781.903,-0.000570825
1779.975,-0.000553193
1778.046,-0.000533182
1776.118,-0.000535716
1774.189,-0.000545334
1772.261,-0.000548591
1770.333,-0.000564827
1768.404,-0.000593936
1766.476,-0.000625369
1764.547,-0.00065437
1762.619,-0.000668948
1760.69,-0.000661762
1758.762,-0.000648115
1756.833,-0.000647805
1754.905,-0.000649563
1752.976,-0.000642222
1751.048,-0.000638862
1749.119,-0.00064553
1747.191,-0.000663313
1745.262,-0.000685127
1743.334,-0.000690244
1741.406,-0.000680785
1739.477,-0.000679286
1737.549,-0.00069531
1735.62,-0.000723376
1733.692,-0.000755627
1731.763,-0.000787823
1729.835,-0.000813093
1727.906,-0.000828699
1725.978,-0.000844821
1724.049,-0.000870914
1722.121,-0.000909663
1720.192,-0.000944432
1718.264,-0.000961169
1716.335,-0.00097398
1714.407,-0.00098147
1712.479,-0.00096401
1710.55,-0.000915295
1708.622,-0.000834796
1706.693,-0.000720895
1704.765,-0.000561776
1702.836,-0.000335353
1700.908,-2.15E-05
1698.979,0.00039108
1697.051,0.000912403
1695.122,0.001567347
1693.194,0.002376975
1691.265,0.00333576
1689.337,0.004430515
1687.408,0.005648864
1685.48,0.006980214
1683.552,0.008408549
1681.623,0.009888309
1679.695,0.01137379
1677.766,0.01284115
1675.838,0.01425268
1673.909,0.01556751
1671.981,0.01677017
1670.052,0.01785885
1668.124,0.01884044
1666.195,0.01971312
1664.267,0.02046403
1662.338,0.02109978
1660.41,0.02163379
1658.481,0.02207285
1656.553,0.02241572
1654.625,0.02263879
1652.696,0.02270888
1650.768,0.02261106
1648.839,0.02235625
1646.911,0.02199003
1644.982,0.02157989
1643.054,0.02115921
1641.125,0.02073196
1639.197,0.02031112
1637.268,0.01990221
1635.34,0.01951529
1633.411,0.01917722
1631.483,0.01887912
1629.554,0.01858518
1627.626,0.01830885
1625.698,0.01809036
1623.769,0.01790872
1621.841,0.01771481
1619.912,0.01751015
1617.984,0.01729645
1616.055,0.0170358
1614.127,0.01669185
1612.198,0.01624076
1610.27,0.01566041
1608.341,0.01496405
1606.413,0.01420659
1604.484,0.01343069
1602.556,0.01266007
1600.627,0.01191111
1598.699,0.01117529
1596.771,0.01044447
1594.842,0.009755363
1592.914,0.009162036
1590.985,0.008678439
1589.057,0.008302361
1587.128,0.008048368
1585.2,0.00791108
1583.271,0.007865872
1581.343,0.007911318
1579.414,0.008054829
1577.486,0.008293997
1575.557,0.008637904
1573.629,0.009082174
1571.7,0.009594589
1569.772,0.01016582
1567.844,0.01079967
1565.915,0.01148602
1563.987,0.01221955
1562.058,0.01299345
1560.13,0.01379972
1558.201,0.01464246
1556.273,0.01549918
1554.344,0.0163117
1552.416,0.01703203
1550.487,0.01761209
1548.559,0.01799265
1546.63,0.01814539
1544.702,0.01808548
1542.773,0.01785097
1540.845,0.01749217
1538.917,0.01704991
1536.988,0.01654253
1535.06,0.01597837
1533.131,0.01536984
1531.203,0.01473888
1529.274,0.01411045
1527.346,0.01349766
1525.417,0.01290709
1523.489,0.01235704
1521.56,0.01188347
1519.632,0.01148244
1517.703,0.0110416
1515.775,0.01043514
1513.846,0.009667213
1511.918,0.008847803
1509.99,0.008070968
1508.061,0.007366339
1506.133,0.006740822
1504.204,0.006200145
1502.276,0.005740923
1500.347,0.005349767
1498.419,0.004995936
1496.49,0.004657699
1494.562,0.004346289
1492.633,0.004074191
1490.705,0.003847965
1488.776,0.003687562
1486.848,0.003605725
1484.919,0.003594423
1482.991,0.003651797
1481.063,0.003791844
1479.134,0.004021726
1477.206,0.004334184
1475.277,0.004721913
1473.349,0.0051815
1471.42,0.00569211
1469.492,0.006202036
1467.563,0.006670132
1465.635,0.007115813
1463.706,0.007587662
1461.778,0.008104408
1459.849,0.008644796
1457.921,0.009153734
1455.992,0.009537563
1454.064,0.009718115
1452.135,0.009708691
1450.207,0.009571275
1448.279,0.009354625
1446.35,0.009103374
1444.422,0.008843629
1442.493,0.008567723
1440.565,0.008266662
1438.636,0.007946696
1436.708,0.007619406
1434.779,0.007314184
1432.851,0.007073661
1430.922,0.006915955
1428.994,0.00683924
1427.065,0.006840923
1425.137,0.006893152
1423.208,0.006942836
1421.28,0.006947255
1419.352,0.006879292
1417.423,0.006726757
1415.495,0.006511705
1413.566,0.006275487
1411.638,0.006043675
1409.709,0.005823924
1407.781,0.005625131
1405.852,0.00545209
1403.924,0.005293977
1401.995,0.00514755
1400.067,0.005029376
1398.138,0.004947312
1396.21,0.004881023
1394.281,0.004815084
1392.353,0.004762477
1390.425,0.004723091
1388.496,0.004665653
1386.568,0.004565582
1384.639,0.004426147
1382.711,0.004270681
1380.782,0.004124599
1378.854,0.004001243
1376.925,0.003909891
1374.997,0.003862669
1373.068,0.003855956
1371.14,0.00386878
1369.211,0.003884973
1367.283,0.003899469
1365.354,0.003912973
1363.426,0.003933034
1361.498,0.003962657
1359.569,0.003993039
1357.641,0.004019452
1355.712,0.004044326
1353.784,0.004066927
1351.855,0.004085636
1349.927,0.004097918
1347.998,0.004101707
1346.07,0.004097134
1344.141,0.004079417
1342.213,0.004042758
1340.284,0.003992961
1338.356,0.003945572
1336.427,0.003914096
1334.499,0.003907854
1332.571,0.003934079
1330.642,0.003991315
1328.714,0.004073329
1326.785,0.004175091
1324.857,0.004287882
1322.928,0.00439244
1321,0.004469038
1319.071,0.004512743
1317.143,0.004526684
1315.214,0.004514652
1313.286,0.00448677
1311.357,0.004451619
1309.429,0.004413491
1307.5,0.00438287
1305.572,0.004377091
1303.644,0.004396571
1301.715,0.004419767
1299.787,0.00443768
1297.858,0.00446263
1295.93,0.004504686
1294.001,0.00455912
1292.073,0.004608851
1290.144,0.004647102
1288.216,0.00468499
1286.287,0.004721102
1284.359,0.004735914
1282.43,0.004729502
1280.502,0.004720761
1278.573,0.004722463
1276.645,0.004743267
1274.717,0.004789826
1272.788,0.004863536
1270.86,0.004959723
1268.931,0.005071304
1267.003,0.005195463
1265.074,0.005333912
1263.146,0.00549364
1261.217,0.005672807
1259.289,0.005857585
1257.36,0.006048662
1255.432,0.006249409
1253.503,0.006450405
1251.575,0.006646291
1249.646,0.0068293
1247.718,0.006979793
1245.79,0.007070398
1243.861,0.00708358
1241.933,0.007022463
1240.004,0.006895519
1238.076,0.006708459
1236.147,0.006466511
1234.219,0.006186203
1232.29,0.005892167
1230.362,0.005597623
1228.433,0.005317193
1226.505,0.005071514
1224.576,0.004870107
1222.648,0.004714428
1220.719,0.004595744
1218.791,0.004517922
1216.863,0.004510572
1214.934,0.004575156
1213.006,0.004676408
1211.077,0.004785927
1209.149,0.004879714
1207.22,0.004930372
1205.292,0.004929744
1203.363,0.004891337
1201.435,0.004831575
1199.506,0.004756405
1197.578,0.004663612
1195.649,0.004556269
1193.721,0.004449266
1191.792,0.004351806
1189.864,0.004245115
1187.936,0.004108057
1186.007,0.003951711
1184.079,0.003799052
1182.15,0.00366686
1180.222,0.003564016
1178.293,0.003485282
1176.365,0.003416345
1174.436,0.00334056
1172.508,0.003253781
1170.579,0.00316814
1168.651,0.003098655
1166.722,0.003060722
1164.794,0.003053449
1162.865,0.003047297
1160.937,0.003018545
1159.009,0.002978665
1157.08,0.002947285
1155.152,0.002922005
1153.223,0.002892323
1151.295,0.002863763
1149.366,0.002845758
1147.438,0.002840156
1145.509,0.002858422
1143.581,0.002913197
1141.652,0.002995529
1139.724,0.003081917
1137.795,0.003150905
1135.867,0.003197215
1133.938,0.003229683
1132.01,0.003252085
1130.082,0.003260692
1128.153,0.003250051
1126.225,0.003208794
1124.296,0.003132809
1122.368,0.003039425
1120.439,0.002950021
1118.511,0.002871659
1116.582,0.002803341
1114.654,0.002750299
1112.725,0.002716018
1110.797,0.002687861
1108.868,0.002667362
1106.94,0.002666477
1105.011,0.002670566
1103.083,0.002665722
1101.155,0.002660721
1099.226,0.002661112
1097.298,0.002652829
1095.369,0.002631942
1093.441,0.002626343
1091.512,0.002651162
1089.584,0.002687288
1087.655,0.002718154
1085.727,0.002744177
1083.798,0.002763038
1081.87,0.002763298
1079.941,0.002739045
1078.013,0.002687053
1076.084,0.00260892
1074.156,0.002522027
1072.228,0.002436609
1070.299,0.002353758
1068.371,0.002280916
1066.442,0.002230253
1064.514,0.002225778
1062.585,0.002279068
1060.657,0.002356569
1058.728,0.002413233
1056.8,0.002439264
1054.871,0.002448454
1052.943,0.002440201
1051.014,0.002415237
1049.086,0.002391785
1047.157,0.002368906
1045.229,0.002323672
1043.301,0.002253749
1041.372,0.002181184
1039.444,0.002119686
1037.515,0.002068652
1035.587,0.002036635
1033.658,0.002028079
1031.73,0.002015284
1029.801,0.001970815
1027.873,0.001902067
1025.944,0.001829664
1024.016,0.001764862
1022.087,0.001708257
1020.159,0.001653244
1018.23,0.001600264
1016.302,0.001561424
1014.374,0.001536562
1012.445,0.00150539
1010.517,0.001460324
1008.588,0.001416899
1006.66,0.001388696
1004.731,0.001373635
1002.803,0.001357353
1000.874,0.001335905
998.946,0.001324636
997.017,0.001324792
995.089,0.001319624
993.16,0.001309576
991.232,0.001305708
989.303,0.001306409
987.375,0.001303812
985.447,0.001286183
983.518,0.001246825
981.59,0.001194492
979.661,0.001134535
977.733,0.001066957
975.804,0.001000661
973.876,0.000941794
971.947,0.000881898
970.019,0.000817757
968.09,0.000763323
966.162,0.000720875
964.233,0.000679909
962.305,0.000648669
960.376,0.000637936
958.448,0.000636718
956.52,0.000633218
954.591,0.000623782
952.663,0.000600141
950.734,0.000562374
948.806,0.000519713
946.877,0.000476848
944.949,0.000446219
943.02,0.000440414
941.092,0.000449743
939.163,0.000465679
937.235,0.000493434
935.306,0.000516966
933.378,0.000516888
931.449,0.000509294
929.521,0.000508154
927.593,0.000507091
925.664,0.000512016
923.736,0.000528447
921.807,0.000541846
919.879,0.000536196
917.95,0.000510072
916.022,0.000473454
914.093,0.000444327
912.165,0.000441373
910.236,0.000456739
908.308,0.000455573
906.379,0.000429298
904.451,0.000401418
902.522,0.000385225
900.594,0.000376597
898.666,0.000361959
896.737,0.000341855
894.809,0.000340923
892.88,0.000369265
890.952,0.000402247
889.023,0.000413129
887.095,0.000408673
885.166,0.000411549
883.238,0.000432692
881.309,0.000462673
879.381,0.000482394
877.452,0.000487551
875.524,0.000477781
873.595,0.000456325
871.667,0.000442565
869.739,0.000435491
867.81,0.000412896
865.882,0.00038209
863.953,0.000372089
862.025,0.00038025
860.096,0.000383541
858.168,0.000386546
856.239,0.00040546
854.311,0.000429505
852.382,0.000441425
850.454,0.000454511
848.525,0.000485763
846.597,0.000506884
844.668,0.000497917
842.74,0.000498617
840.812,0.000520594
838.883,0.000519609
836.955,0.000503567
835.026,0.000532594
833.098,0.00059112
831.169,0.000617353
829.241,0.000634203
827.312,0.000688906
825.384,0.000745405
823.455,0.000746338
821.527,0.000725853
819.598,0.000761819
817.67,0.000840346
815.741,0.000902234
813.813,0.000951549
811.885,0.00101545
809.956,0.001064803
808.028,0.001085278
806.099,0.001125919
804.171,0.001176946
802.242,0.001197685
800.314,0.00121949
798.385,0.001273565
796.457,0.00131129
794.528,0.001288468
792.6,0.001279355
790.671,0.001340189
788.743,0.001402122
786.814,0.00142386
784.886,0.001427158
782.958,0.001420561
781.029,0.001414484
779.101,0.001415445
777.172,0.001406018
775.244,0.001376179
773.315,0.001338449
771.387,0.001339228
769.458,0.001414017
767.53,0.001511832
765.601,0.001562826
763.673,0.001594886
761.744,0.001680503
759.816,0.001779392
757.887,0.001787631
755.959,0.00171886
754.031,0.001642486
752.102,0.001580389
750.174,0.001575453
748.245,0.001655011
746.317,0.001729542
744.388,0.001772608
742.46,0.001860599
740.531,0.001915041
738.603,0.001834629
736.674,0.00169781
734.746,0.001584
732.817,0.001533549
730.889,0.001572101
728.96,0.001601148
727.032,0.001579713
725.104,0.001645786
723.175,0.001729983
721.247,0.001625857
719.318,0.001539628
717.39,0.00171808
715.461,0.001861431
713.533,0.001738404
711.604,0.001604395
709.676,0.001587196
707.747,0.001608526
705.819,0.00173882
703.89,0.001947672
701.962,0.002040198
700.033,0.002035179
698.105,0.002083504
696.177,0.002143124
694.248,0.002083842
692.32,0.001868736
690.391,0.00151804
688.463,0.001086783
686.534,0.00068315
684.606,0.000499472
682.677,0.000721809
680.749,0.00115369
678.82,0.001270424
676.892,0.001013452
674.963,0.000916865
673.035,0.001066776
671.106,0.000369472
669.178,-0.00161136
667.25,-0.002017467
665.321,0.000372193
663.393,0.002070681
661.464,0.002061941
659.536,0.001460194
657.607,0.000776963
655.679,0.000363358
653.75,0.000482498
651.822,0.00070174
649.893,0.00103037
647.965,0.001661897
646.036,0.001952769
644.108,0.001666626
642.179,0.001057667
640.251,0.000583758
638.323,0.001036597
636.394,0.001971153
634.466,0.002347069
632.537,0.00260129
630.609,0.003919242
628.68,0.006421348
626.752,0.00898581
624.823,0.009591784
622.895,0.007346487
620.966,0.005394897
619.038,0.005958217
617.109,0.006354623
615.181,0.004779698
613.252,0.003238028
611.324,0.004124442
609.396,0.007080239
607.467,0.009687515
605.539,0.01128603
603.61,0.01336702
601.682,0.01613787
599.753,0.01701179
597.825,0.01401448
595.896,0.01113741
593.968,0.01195355
592.039,0.01284579
590.111,0.01254407
588.182,0.01318265
586.254,0.01553123
584.325,0.01837033
582.397,0.01684796
580.469,0.01348201
578.54,0.01537678
576.612,0.01830229
574.683,0.01703114
572.755,0.01679578
570.826,0.02332605
568.898,0.03077898
566.969,0.03054008
565.041,0.02444155
563.112,0.01768183
561.184,0.01303159
559.255,0.0130655
557.327,0.01738689
555.398,0.02343805
553.47,0.02800202
551.542,0.02537615
549.613,0.01584978
547.685,0.01023179
545.756,0.01349026
543.828,0.01919824
541.899,0.02360587
539.971,0.02539026
538.042,0.0223475
536.114,0.01976963
534.185,0.02300443
532.257,0.0256032
530.328,0.02236641
528.4,0.01894902
526.471,0.02043239
524.543,0.02459227
522.615,0.0285308
520.686,0.0336879
518.758,0.03871788
516.829,0.03776491
514.901,0.03150027
512.972,0.02756614
511.044,0.02914855
509.115,0.03222278
507.187,0.03332523
505.258,0.03188905
503.33,0.02689115
501.401,0.01953906
499.473,0.0154116
497.544,0.01774501
495.616,0.02176778
493.688,0.02156455
491.759,0.01909352
489.831,0.0191427
487.902,0.02149684
485.974,0.02356911
484.045,0.025246
482.117,0.02586967
480.188,0.02209082
478.26,0.01610797
476.331,0.01527829
474.403,0.01943055
472.474,0.02165719
470.546,0.02005142
468.617,0.01891616
466.689,0.01995972
464.76,0.02137196
462.832,0.0218582
460.904,0.0203724
458.975,0.01827232
457.047,0.0172369
455.118,0.01632904
453.19,0.01583533
451.261,0.01607853
449.333,0.01721551
447.404,0.0208452
445.476,0.02468504
443.547,0.02454102
441.619,0.02128893
439.69,0.01911354
437.762,0.02059766
435.833,0.02441731
433.905,0.02638076
431.977,0.02498079
430.048,0.02202293
428.12,0.01874772
426.191,0.01629956
424.263,0.01509
422.334,0.01490401
420.406,0.01751435
418.477,0.02276521
416.549,0.02509204
414.62,0.02250603
412.692,0.02032756
410.763,0.01974186
408.835,0.0186944
406.906,0.01923663
404.978,0.02084395
403.05,0.02103845
401.121,0.02078963
399.193,0.019935
