Wavenumbers [1/cm],Absorbance
3997.712,0.000148326
3995.783,0.000152366
3993.855,0.000152676
3991.926,0.000149362
3989.998,0.000150864
3988.069,0.000157959
3986.141,0.0001707
3984.212,0.000182379
3982.284,0.000186212
3980.355,0.000179064
3978.427,0.00016407
3976.499,0.000156017
3974.57,0.000155654
3972.642,0.000152107
3970.713,0.000152573
3968.785,0.000167126
3966.856,0.000182716
3964.928,0.000181214
3962.999,0.000169871
3961.071,0.000162568
3959.142,0.000156846
3957.214,0.00014641
3955.285,0.000134576
3953.357,0.000125746
3951.428,0.00011614
3949.5,0.000109822
3947.572,0.000118574
3945.643,0.000134188
3943.715,0.000145296
3941.786,0.000150864
3939.858,0.000148818
3937.929,0.000145115
3936.001,0.000146255
3934.072,0.000144028
3932.144,0.000132997
3930.215,0.000123053
3928.287,0.00012383
3926.358,0.000130226
3924.43,0.000126756
3922.501,0.000113085
3920.573,0.000105317
3918.645,0.000103634
3916.716,0.000101071
3914.788,0.000102236
3912.859,0.000103841
3910.931,0.00010353
3909.002,0.000111609
3907.074,0.000122536
3905.145,0.000121267
3903.217,0.000108113
3901.288,9.09E-05
3899.36,8.40E-05
3897.431,9.20E-05
3895.503,9.72E-05
3893.574,9.43E-05
3891.646,9.69E-05
3889.718,0.000102961
3887.789,0.000101459
3885.861,9.17E-05
3883.932,8.23E-05
3882.004,8.53E-05
3880.075,9.30E-05
3878.147,8.69E-05
3876.218,7.78E-05
3874.29,7.61E-05
3872.361,6.98E-05
3870.433,6.69E-05
3868.504,8.19E-05
3866.576,0.000102106
3864.647,0.000110159
3862.719,0.00010221
3860.791,8.13E-05
3858.862,6.77E-05
3856.934,7.15E-05
3855.005,6.73E-05
3853.077,4.98E-05
3851.148,4.40E-05
3849.22,5.10E-05
3847.291,5.61E-05
3845.363,5.65E-05
3843.434,5.38E-05
3841.506,5.45E-05
3839.577,6.63E-05
3837.649,8.56E-05
3835.72,9.53E-05
3833.792,7.81E-05
3831.864,4.60E-05
3829.935,2.97E-05
3828.007,3.26E-05
3826.078,3.93E-05
3824.15,4.98E-05
3822.221,6.70E-05
3820.293,7.25E-05
3818.364,5.27E-05
3816.436,2.72E-05
3814.507,2.26E-05
3812.579,3.77E-05
3810.65,5.36E-05
3808.722,5.12E-05
3806.793,3.25E-05
3804.865,2.00E-05
3802.937,1.87E-05
3801.008,1.94E-05
3799.08,2.07E-05
3797.151,1.73E-05
3795.223,1.44E-05
3793.294,2.88E-05
3791.366,4.82E-05
3789.437,4.57E-05
3787.509,2.56E-05
3785.58,1.41E-05
3783.652,1.24E-05
3781.723,8.10E-06
3779.795,1.17E-05
3777.866,2.23E-05
3775.938,1.51E-05
3774.01,-1.82E-05
3772.081,-4.74E-05
3770.153,-3.27E-05
3768.224,3.42E-06
3766.296,8.72E-06
3764.367,-1.16E-05
3762.439,-2.87E-05
3760.51,-3.23E-05
3758.582,-2.25E-05
3756.653,-1.23E-05
3754.725,-1.85E-05
3752.796,-3.88E-05
3750.868,-5.57E-05
3748.939,-6.50E-05
3747.011,-8.70E-05
3745.083,-0.000138985
3743.154,-0.000207194
3741.226,-0.000278961
3739.297,-0.000364322
3737.369,-0.000463319
3735.44,-0.000563327
3733.512,-0.000653233
3731.583,-0.000729992
3729.655,-0.000791493
3727.726,-0.0008133
3725.798,-0.000782862
3723.869,-0.000728493
3721.941,-0.000668534
3720.012,-0.000589593
3718.084,-0.000489745
3716.156,-0.000397323
3714.227,-0.000366236
3712.299,-0.000440511
3710.37,-0.000586594
3708.442,-0.000722394
3706.513,-0.00080343
3704.585,-0.00083769
3702.656,-0.000844924
3700.728,-0.000835416
3698.799,-0.000832936
3696.871,-0.000849729
3694.942,-0.000861872
3693.014,-0.000863009
3691.085,-0.000866419
3689.157,-0.000871482
3687.229,-0.000869725
3685.3,-0.000854793
3683.372,-0.000843891
3681.443,-0.000865282
3679.515,-0.000909353
3677.586,-0.000950476
3675.658,-0.000980953
3673.729,-0.00100585
3671.801,-0.001038545
3669.872,-0.001076092
3667.944,-0.001120451
3666.015,-0.001174565
3664.087,-0.001215249
3662.158,-0.001246225
3660.23,-0.001283908
3658.302,-0.001323447
3656.373,-0.001362259
3654.445,-0.001410873
3652.516,-0.001480739
3650.588,-0.001552451
3648.659,-0.001602333
3646.731,-0.001632507
3644.802,-0.001662885
3642.874,-0.001716725
3640.945,-0.001777725
3639.017,-0.001839903
3637.088,-0.001949697
3635.16,-0.002083474
3633.231,-0.002151738
3631.303,-0.002164617
3629.375,-0.002184553
3627.446,-0.002211544
3625.518,-0.002236577
3623.589,-0.002255325
3621.661,-0.002224679
3619.732,-0.002123043
3617.804,-0.002013447
3615.875,-0.001943409
3613.947,-0.001897278
3612.018,-0.001893102
3610.09,-0.001952377
3608.161,-0.002036276
3606.233,-0.002107329
3604.304,-0.002162454
3602.376,-0.002195885
3600.448,-0.002198255
3598.519,-0.002177135
3596.591,-0.002150914
3594.662,-0.00213108
3592.734,-0.002109596
3590.805,-0.002075333
3588.877,-0.00202025
3586.948,-0.001945986
3585.02,-0.001874957
3583.091,-0.001833356
3581.163,-0.00183449
3579.234,-0.001857018
3577.306,-0.001868978
3575.377,-0.001867122
3573.449,-0.001863874
3571.521,-0.001855884
3569.592,-0.001831345
3567.664,-0.001806908
3565.735,-0.001800772
3563.807,-0.0018083
3561.878,-0.001817941
3559.95,-0.001826963
3558.021,-0.001814899
3556.093,-0.001757152
3554.164,-0.001730339
3552.236,-0.001791595
3550.307,-0.001877071
3548.379,-0.001939647
3546.45,-0.001966756
3544.522,-0.001956603
3542.594,-0.001932018
3540.665,-0.00191104
3538.737,-0.001872019
3536.808,-0.001821653
3534.88,-0.001859338
3532.951,-0.0019984
3531.023,-0.002101147
3529.094,-0.002097901
3527.166,-0.002084402
3525.237,-0.002130565
3523.309,-0.002157302
3521.38,-0.002135047
3519.452,-0.002142826
3517.523,-0.002184811
3515.595,-0.002193722
3513.667,-0.002186047
3511.738,-0.002227048
3509.81,-0.002295702
3507.881,-0.002353892
3505.953,-0.002414597
3504.024,-0.002494031
3502.096,-0.002592904
3500.167,-0.002652958
3498.239,-0.002648224
3496.31,-0.002665102
3494.382,-0.002702559
3492.453,-0.002711872
3490.525,-0.002768514
3488.596,-0.002872211
3486.668,-0.002955572
3484.74,-0.003049867
3482.811,-0.003133709
3480.883,-0.003148152
3478.954,-0.003153857
3477.026,-0.003208232
3475.097,-0.003275754
3473.169,-0.003359552
3471.24,-0.003438813
3469.312,-0.003429619
3467.383,-0.003395819
3465.455,-0.003418729
3463.526,-0.003452013
3461.598,-0.003531668
3459.669,-0.003713059
3457.741,-0.003907151
3455.813,-0.004021655
3453.884,-0.004091052
3451.956,-0.004184896
3450.027,-0.004304505
3448.099,-0.004416292
3446.17,-0.004469894
3444.242,-0.004460875
3442.313,-0.004475787
3440.385,-0.004591423
3438.456,-0.004830384
3436.528,-0.00508431
3434.599,-0.005210168
3432.671,-0.005280807
3430.742,-0.005388507
3428.814,-0.005486161
3426.885,-0.005560128
3424.957,-0.00562652
3423.029,-0.005657693
3421.1,-0.00565478
3419.172,-0.00572596
3417.243,-0.0059285
3415.315,-0.006106034
3413.386,-0.006178364
3411.458,-0.006346817
3409.529,-0.006662521
3407.601,-0.006844189
3405.672,-0.006787923
3403.744,-0.006711768
3401.815,-0.006836851
3399.887,-0.007151893
3397.958,-0.007421872
3396.03,-0.007575241
3394.102,-0.007682527
3392.173,-0.007719199
3390.245,-0.007768479
3388.316,-0.007924268
3386.388,-0.008113133
3384.459,-0.008275148
3382.531,-0.008383987
3380.602,-0.008379062
3378.674,-0.008348133
3376.745,-0.008463708
3374.817,-0.008568947
3372.888,-0.008504578
3370.96,-0.008491987
3369.031,-0.008606965
3367.103,-0.008706842
3365.175,-0.008779146
3363.246,-0.008818058
3361.318,-0.008787517
3359.389,-0.008736374
3357.461,-0.008725312
3355.532,-0.008809384
3353.604,-0.008969262
3351.675,-0.00902763
3349.747,-0.008966169
3347.818,-0.00899827
3345.89,-0.009076407
3343.961,-0.009015054
3342.033,-0.008978138
3340.104,-0.009103734
3338.176,-0.009228129
3336.248,-0.009315195
3334.319,-0.009419063
3332.391,-0.00944728
3330.462,-0.009364092
3328.534,-0.009325634
3326.605,-0.009435426
3324.677,-0.009518753
3322.748,-0.009447939
3320.82,-0.009345496
3318.891,-0.009308709
3316.963,-0.009308101
3315.034,-0.009243182
3313.106,-0.009095166
3311.177,-0.00895628
3309.249,-0.008862649
3307.321,-0.008816486
3305.392,-0.008840431
3303.464,-0.008895671
3301.535,-0.008878831
3299.607,-0.008816689
3297.678,-0.008780313
3295.75,-0.008685325
3293.821,-0.008573871
3291.893,-0.008577526
3289.964,-0.008634118
3288.036,-0.008677003
3286.107,-0.008698113
3284.179,-0.008677662
3282.25,-0.008605595
3280.322,-0.008443398
3278.394,-0.008261839
3276.465,-0.00827083
3274.537,-0.00846711
3272.608,-0.008617877
3270.68,-0.008668477
3268.751,-0.008727849
3266.823,-0.008794265
3264.894,-0.008843424
3262.966,-0.00888091
3261.037,-0.008917126
3259.109,-0.008956787
3257.18,-0.008909771
3255.252,-0.008846316
3253.323,-0.008963785
3251.395,-0.009120566
3249.467,-0.009167355
3247.538,-0.009304553
3245.61,-0.009569754
3243.681,-0.009693914
3241.753,-0.009584136
3239.824,-0.009474179
3237.896,-0.00954509
3235.967,-0.009687281
3234.039,-0.009735276
3232.11,-0.009681611
3230.182,-0.00963756
3228.253,-0.009655789
3226.325,-0.009675737
3224.396,-0.009648345
3222.468,-0.00949986
3220.54,-0.009247592
3218.611,-0.009208566
3216.683,-0.009484563
3214.754,-0.009669865
3212.826,-0.009599076
3210.897,-0.009544178
3208.969,-0.009540684
3207.04,-0.009433957
3205.112,-0.009327711
3203.183,-0.009280432
3201.255,-0.00912158
3199.326,-0.008913931
3197.398,-0.008899171
3195.469,-0.009033056
3193.541,-0.009064645
3191.613,-0.008903888
3189.684,-0.00868299
3187.756,-0.00855778
3185.827,-0.008589149
3183.899,-0.008668578
3181.97,-0.008637316
3180.042,-0.008574429
3178.113,-0.008571739
3176.185,-0.008571688
3174.256,-0.008597321
3172.328,-0.008606762
3170.399,-0.00848686
3168.471,-0.008353771
3166.542,-0.00832467
3164.614,-0.008314563
3162.686,-0.008303541
3160.757,-0.008321927
3158.829,-0.008278145
3156.9,-0.00817314
3154.972,-0.008136557
3153.043,-0.008177154
3151.115,-0.008199711
3149.186,-0.008150022
3147.258,-0.008045342
3145.329,-0.007931284
3143.401,-0.00781394
3141.472,-0.007676729
3139.544,-0.007534334
3137.615,-0.007434697
3135.687,-0.007413067
3133.759,-0.007406247
3131.83,-0.007301133
3129.902,-0.007141657
3127.973,-0.007050232
3126.045,-0.006986606
3124.116,-0.006869873
3122.188,-0.006720842
3120.259,-0.00656406
3118.331,-0.006446398
3116.402,-0.006390437
3114.474,-0.006285996
3112.545,-0.006091025
3110.617,-0.005898316
3108.688,-0.005734646
3106.76,-0.005582618
3104.832,-0.005444188
3102.903,-0.005303361
3100.975,-0.00515236
3099.046,-0.004985695
3097.118,-0.004792956
3095.189,-0.004583328
3093.261,-0.004388053
3091.332,-0.004236835
3089.404,-0.004093924
3087.475,-0.003899865
3085.547,-0.003680976
3083.618,-0.00348776
3081.69,-0.003309409
3079.761,-0.003100966
3077.833,-0.002868096
3075.905,-0.002695922
3073.976,-0.002601087
3072.048,-0.002498767
3070.119,-0.002378865
3068.191,-0.002279634
3066.262,-0.00217049
3064.334,-0.002042717
3062.405,-0.001937173
3060.477,-0.001860884
3058.548,-0.001806392
3056.62,-0.001756276
3054.691,-0.001702389
3052.763,-0.001678512
3050.834,-0.001676552
3048.906,-0.001654736
3046.978,-0.001623945
3045.049,-0.001610018
3043.121,-0.00158789
3041.192,-0.001528823
3039.264,-0.001473877
3037.335,-0.001460461
3035.407,-0.001457417
3033.478,-0.001444053
3031.55,-0.001426147
3029.621,-0.001391934
3027.693,-0.001349408
3025.764,-0.001319524
3023.836,-0.001283547
3021.907,-0.001240804
3019.979,-0.001230273
3018.051,-0.001247515
3016.122,-0.001242301
3014.194,-0.001181432
3012.265,-0.0010842
3010.337,-0.00100084
3008.408,-0.000956623
3006.48,-0.000925627
3004.551,-0.000852778
3002.623,-0.000734385
3000.694,-0.000632968
2998.766,-0.000570928
2996.837,-0.0004914
2994.909,-0.000359304
2992.98,-0.000218371
2991.052,-8.98E-05
2989.124,6.18E-05
2987.195,0.000234357
2985.267,0.000404449
2983.338,0.000582514
2981.41,0.000769235
2979.481,0.000946723
2977.553,0.001116057
2975.624,0.001292388
2973.696,0.001497519
2971.767,0.001728138
2969.839,0.001942134
2967.91,0.002138493
2965.982,0.002355242
2964.053,0.002567099
2962.125,0.002702968
2960.197,0.002756056
2958.268,0.002791018
2956.34,0.002825226
2954.411,0.002803185
2952.483,0.002720759
2950.554,0.002647542
2948.626,0.002625874
2946.697,0.002649053
2944.769,0.002711486
2942.84,0.002826607
2940.912,0.00300241
2938.983,0.00321633
2937.055,0.003422373
2935.126,0.003595937
2933.198,0.003753434
2931.27,0.003905843
2929.341,0.004032908
2927.413,0.004107325
2925.484,0.004108397
2923.556,0.00404038
2921.627,0.003913861
2919.699,0.003706255
2917.77,0.003424486
2915.842,0.003143317
2913.913,0.002906004
2911.985,0.002697133
2910.056,0.002506379
2908.128,0.00233377
2906.199,0.002187922
2904.271,0.002091619
2902.343,0.002041057
2900.414,0.001997938
2898.486,0.001943122
2896.557,0.001895437
2894.629,0.001871544
2892.7,0.001861639
2890.772,0.001847263
2888.843,0.001825141
2886.915,0.001803409
2884.986,0.001784252
2883.058,0.001770633
2881.129,0.0017724
2879.201,0.001789815
2877.272,0.001814457
2875.344,0.001834421
2873.416,0.001827532
2871.487,0.001778508
2869.559,0.001708621
2867.63,0.001660078
2865.702,0.001649814
2863.773,0.001681594
2861.845,0.001760418
2859.916,0.00186884
2857.988,0.001983141
2856.059,0.002079862
2854.131,0.002115185
2852.202,0.00205289
2850.274,0.001902041
2848.345,0.001712025
2846.417,0.001525418
2844.489,0.001357457
2842.56,0.001211495
2840.632,0.001086653
2838.703,0.000987169
2836.775,0.000915023
2834.846,0.000860188
2832.918,0.000822451
2830.989,0.000806942
2829.061,0.000801133
2827.132,0.000796594
2825.204,0.000799654
2823.275,0.000801107
2821.347,0.000788347
2819.418,0.000773877
2817.49,0.00077061
2815.562,0.000768042
2813.633,0.000754584
2811.705,0.00073537
2809.776,0.000716726
2807.848,0.000703192
2805.919,0.000701169
2803.991,0.000706329
2802.062,0.000706355
2800.134,0.000693962
2798.205,0.000672417
2796.277,0.000657431
2794.348,0.00065598
2792.42,0.000652713
2790.491,0.000637495
2788.563,0.000623575
2786.635,0.000624508
2784.706,0.0006292
2782.778,0.000620697
2780.849,0.000603122
2778.921,0.000589305
2776.992,0.000583681
2775.064,0.000583862
2773.135,0.000578496
2771.207,0.000559575
2769.278,0.000535859
2767.35,0.000518339
2765.421,0.000507999
2763.493,0.000500664
2761.564,0.000489598
2759.636,0.000469903
2757.708,0.00045464
2755.779,0.000457257
2753.851,0.00046358
2751.922,0.000456247
2749.994,0.000437953
2748.065,0.000422457
2746.137,0.000417457
2744.208,0.00041541
2742.28,0.000409606
2740.351,0.000401444
2738.423,0.000392997
2736.494,0.000385898
2734.566,0.000380742
2732.637,0.000372763
2730.709,0.000358487
2728.781,0.000346285
2726.852,0.000344834
2724.924,0.000348306
2722.995,0.000343461
2721.067,0.000331415
2719.138,0.000319058
2717.21,0.000305225
2715.281,0.000294475
2713.353,0.000289165
2711.424,0.00028357
2709.496,0.000279969
2707.567,0.000278078
2705.639,0.000274115
2703.71,0.000267588
2701.782,0.000257512
2699.854,0.000251089
2697.925,0.000252824
2695.997,0.000252669
2694.068,0.000246012
2692.14,0.000237206
2690.211,0.000228504
2688.283,0.00022019
2686.354,0.000215218
2684.426,0.000214466
2682.497,0.000211151
2680.569,0.000206516
2678.64,0.000210478
2676.712,0.00021861
2674.783,0.00021703
2672.855,0.000206567
2670.927,0.000202734
2668.998,0.000210659
2667.07,0.000220035
2665.141,0.000220216
2663.213,0.000208976
2661.284,0.000195121
2659.356,0.000186186
2657.427,0.00017764
2655.499,0.000165158
2653.57,0.000151563
2651.642,0.000146099
2649.713,0.000154411
2647.785,0.000166427
2645.856,0.000167799
2643.928,0.00015612
2642,0.000138926
2640.071,0.000126083
2638.143,0.000126264
2636.214,0.000136104
2634.286,0.000138408
2632.357,0.000127248
2630.429,0.000115881
2628.5,0.00011917
2626.572,0.000125772
2624.643,0.000114871
2622.715,0.000104152
2620.786,0.000112696
2618.858,0.000117745
2616.929,0.000105602
2615.001,9.64E-05
2613.073,0.000101744
2611.144,0.000113654
2609.216,0.000115234
2607.287,8.99E-05
2605.359,4.47E-05
2603.43,2.43E-06
2601.502,-1.10E-05
2599.573,4.53E-06
2597.645,5.02E-06
2595.716,-2.61E-05
2593.788,-4.28E-05
2591.859,-1.60E-06
2589.931,6.18E-05
2588.002,5.94E-05
2586.074,-8.80E-07
2584.146,-4.16E-05
2582.217,-6.13E-05
2580.289,-8.06E-05
2578.36,-8.03E-05
2576.432,-6.62E-05
2574.503,-5.83E-05
2572.575,-5.29E-05
2570.646,-5.93E-05
2568.718,-6.97E-05
2566.789,-4.62E-05
2564.861,-1.20E-05
2562.932,-1.18E-05
2561.004,-2.59E-05
2559.075,-1.83E-05
2557.147,1.21E-05
2555.219,2.38E-05
2553.29,6.37E-06
2551.362,8.72E-06
2549.433,1.03E-05
2547.505,-3.40E-05
2545.576,-6.76E-05
2543.648,-6.55E-05
2541.719,-6.49E-05
2539.791,-5.38E-05
2537.862,-4.69E-05
2535.934,-7.21E-05
2534.005,-8.22E-05
2532.077,-4.96E-05
2530.148,-3.08E-05
2528.22,-6.30E-05
2526.292,-9.93E-05
2524.363,-0.000102652
2522.435,-8.49E-05
2520.506,-6.36E-05
2518.578,-6.95E-05
2516.649,-0.000115591
2514.721,-0.000165639
2512.792,-0.00019229
2510.864,-0.000186029
2508.935,-0.00012408
2507.007,-4.51E-05
2505.078,-3.70E-05
2503.15,-9.61E-05
2501.221,-0.000130342
2499.293,-9.31E-05
2497.365,-6.45E-05
2495.436,-0.000107983
2493.508,-0.000134017
2491.579,-9.35E-05
2489.651,-7.09E-05
2487.722,-0.000105913
2485.794,-0.00015327
2483.865,-0.00018489
2481.937,-0.000217543
2480.008,-0.000241035
2478.08,-0.000205641
2476.151,-0.000143695
2474.223,-0.000133396
2472.294,-0.000152545
2470.366,-0.0001704
2468.438,-0.000199069
2466.509,-0.000220544
2464.581,-0.000247089
2462.652,-0.00027922
2460.724,-0.000267423
2458.795,-0.000237361
2456.867,-0.000232446
2454.938,-0.000219768
2453.01,-0.000185149
2451.081,-0.000146179
2449.153,-0.000117144
2447.224,-0.000143126
2445.296,-0.000219095
2443.367,-0.000274046
2441.439,-0.000287446
2439.51,-0.000268355
2437.582,-0.000251228
2435.654,-0.000284083
2433.725,-0.000320143
2431.797,-0.000299553
2429.868,-0.000265147
2427.94,-0.00025335
2426.011,-0.000244605
2424.083,-0.000229341
2422.154,-0.000211851
2420.226,-0.000222097
2418.297,-0.000282945
2416.369,-0.000326144
2414.44,-0.000303122
2412.512,-0.000283359
2410.583,-0.000286825
2408.655,-0.000263284
2406.727,-0.000234722
2404.798,-0.000220751
2402.87,-0.000208073
2400.941,-0.000220441
2399.013,-0.000257955
2397.084,-0.000277512
2395.156,-0.000269441
2393.227,-0.000267113
2391.299,-0.000290395
2389.37,-0.000357804
2387.442,-0.000495589
2385.513,-0.000746324
2383.585,-0.001239359
2381.656,-0.002125568
2379.728,-0.003444155
2377.8,-0.005110456
2375.871,-0.006942332
2373.943,-0.008741854
2372.014,-0.01043343
2370.086,-0.01201603
2368.157,-0.01342857
2366.229,-0.01460301
2364.3,-0.01551785
2362.372,-0.01613664
2360.443,-0.01635907
2358.515,-0.01609698
2356.586,-0.01533163
2354.658,-0.01397982
2352.729,-0.01186155
2350.801,-0.009477522
2348.873,-0.008305319
2346.944,-0.009151844
2345.016,-0.01097502
2343.087,-0.01211694
2341.159,-0.01235914
2339.23,-0.01226
2337.302,-0.01203365
2335.373,-0.01176527
2333.445,-0.01156503
2331.516,-0.01137791
2329.588,-0.01099682
2327.659,-0.0104586
2325.731,-0.01000836
2323.802,-0.009645358
2321.874,-0.009117828
2319.946,-0.008297496
2318.017,-0.007334121
2316.089,-0.006460425
2314.16,-0.005755593
2312.232,-0.005125038
2310.303,-0.004514728
2308.375,-0.003929007
2306.446,-0.003348403
2304.518,-0.002806066
2302.589,-0.002399615
2300.661,-0.002145299
2298.732,-0.001953459
2296.804,-0.001769682
2294.875,-0.001567566
2292.947,-0.001332685
2291.019,-0.001098556
2289.09,-0.000911575
2287.162,-0.000815367
2285.233,-0.000748029
2283.305,-0.000629815
2281.376,-0.000580596
2279.448,-0.000693552
2277.519,-0.000824823
2275.591,-0.000852881
2273.662,-0.000827355
2271.734,-0.000805497
2269.805,-0.000789374
2267.877,-0.000813042
2265.948,-0.000921804
2264.02,-0.001037099
2262.092,-0.001009827
2260.163,-0.000876907
2258.235,-0.000770718
2256.306,-0.000709679
2254.378,-0.000726529
2252.449,-0.000858462
2250.521,-0.000996966
2248.592,-0.001009311
2246.664,-0.000922992
2244.735,-0.0009139
2242.807,-0.000974341
2240.878,-0.00091328
2238.95,-0.000696602
2237.021,-0.000439477
2235.093,-0.000359925
2233.165,-0.000489642
2231.236,-0.00051405
2229.308,-0.00035589
2227.379,-0.000308606
2225.451,-0.000403478
2223.522,-0.000462284
2221.594,-0.000696344
2219.665,-0.00106912
2217.737,-0.001003836
2215.808,-0.000548022
2213.88,-0.000321799
2211.951,-0.000343837
2210.023,-0.000188513
2208.094,-7.55E-05
2206.166,-0.000466991
2204.238,-0.001024031
2202.309,-0.001130108
2200.381,-0.001046085
2198.452,-0.0013732
2196.524,-0.001411079
2194.595,-0.000557019
2192.667,-2.04E-05
2190.738,-0.000361994
2188.81,-0.000568808
2186.881,-0.000602363
2184.953,-0.001221599
2183.024,-0.001738435
2181.096,-0.001326492
2179.167,-0.000903567
2177.239,-0.001114564
2175.311,-0.001417891
2173.382,-0.001711568
2171.454,-0.001984588
2169.525,-0.001431359
2167.597,-0.000350148
2165.668,-0.000276322
2163.74,-0.001064471
2161.811,-0.001523355
2159.883,-0.001523819
2157.954,-0.001384812
2156.026,-0.001079138
2154.097,-0.000997947
2152.169,-0.001685835
2150.24,-0.002180123
2148.312,-0.00162183
2146.384,-0.000895146
2144.455,-0.00078188
2142.527,-0.00101241
2140.598,-0.000888842
2138.67,-0.000262198
2136.741,0.000235031
2134.813,0.000205402
2132.884,-0.000177749
2130.956,-0.000479299
2129.027,-0.00055945
2127.099,-0.000640774
2125.17,-0.000750614
2123.242,-0.00081423
2121.313,-0.000843839
2119.385,-0.000791079
2117.457,-0.000714434
2115.528,-0.000717794
2113.6,-0.000699652
2111.671,-0.000652147
2109.743,-0.00073361
2107.814,-0.000759038
2105.886,-0.000532717
2103.957,-0.00036458
2102.029,-0.000426288
2100.1,-0.000481419
2098.172,-0.000494658
2096.243,-0.000569946
2094.315,-0.000579252
2092.386,-0.000514929
2090.458,-0.000652096
2088.53,-0.000946291
2086.601,-0.001009879
2084.673,-0.000892821
2082.744,-0.000926092
2080.816,-0.000941694
2078.887,-0.000782966
2076.959,-0.000796092
2075.03,-0.001030694
2073.102,-0.001084458
2071.173,-0.000914933
2069.245,-0.000957501
2067.316,-0.001284424
2065.388,-0.001463299
2063.459,-0.001412369
2061.531,-0.001348169
2059.603,-0.001276475
2057.674,-0.001016852
2055.746,-0.000765446
2053.817,-0.001223097
2051.889,-0.002051425
2049.96,-0.002113821
2048.032,-0.001361485
2046.103,-0.000317453
2044.175,0.000622978
2042.246,0.000636977
2040.318,-0.000499312
2038.389,-0.001971601
2036.461,-0.003082666
2034.532,-0.003586561
2032.604,-0.002993827
2030.676,-0.001307291
2028.747,-0.000294379
2026.819,-0.000863267
2024.89,-0.001433629
2022.962,-0.000948823
2021.033,-1.99E-05
2019.105,9.70E-05
2017.176,-0.00114627
2015.248,-0.002417377
2013.319,-0.002628927
2011.391,-0.002211905
2009.462,-0.001531248
2007.534,-0.001091533
2005.605,-0.001512572
2003.677,-0.001990257
2001.749,-0.001811651
1999.82,-0.001537232
1997.892,-0.001169144
1995.963,-0.000422616
1994.035,-8.18E-05
1992.106,-0.000389151
1990.178,-0.000410771
1988.249,-0.000105291
1986.321,-0.000299087
1984.392,-0.00079573
1982.464,-0.000892511
1980.535,-0.001009982
1978.607,-0.001816703
1976.678,-0.00245429
1974.75,-0.001924081
1972.822,-0.001142087
1970.893,-0.001027234
1968.965,-0.001348221
1967.036,-0.001751274
1965.108,-0.002149626
1963.179,-0.002356055
1961.251,-0.001998245
1959.322,-0.00112861
1957.394,-0.000405082
1955.465,-0.000189185
1953.537,-0.000111295
1951.608,-2.79E-05
1949.68,-0.000406892
1947.751,-0.000933376
1945.823,-0.000855413
1943.895,-0.000612858
1941.966,-0.000850194
1940.038,-0.001313898
1938.109,-0.001560653
1936.181,-0.001455198
1934.252,-0.001127113
1932.324,-0.00085779
1930.395,-0.00072503
1928.467,-0.000590213
1926.538,-0.00053644
1924.61,-0.000680165
1922.681,-0.000852468
1920.753,-0.000874634
1918.824,-0.000732318
1916.896,-0.000588921
1914.968,-0.000636535
1913.039,-0.000775317
1911.111,-0.000751285
1909.182,-0.00059104
1907.254,-0.000535458
1905.325,-0.000613478
1903.397,-0.000654318
1901.468,-0.000615494
1899.54,-0.000599778
1897.611,-0.000638655
1895.683,-0.000674892
1893.754,-0.000683628
1891.826,-0.000651113
1889.897,-0.000606654
1887.969,-0.000639482
1886.041,-0.000718104
1884.112,-0.000689521
1882.184,-0.000555365
1880.255,-0.000499364
1878.327,-0.000553452
1876.398,-0.000578994
1874.47,-0.000567774
1872.541,-0.000594039
1870.613,-0.000626765
1868.684,-0.000611669
1866.756,-0.000599623
1864.827,-0.000642274
1862.899,-0.000658144
1860.97,-0.000571083
1859.042,-0.000471904
1857.114,-0.0004733
1855.185,-0.000524599
1853.257,-0.000544248
1851.328,-0.000554693
1849.4,-0.000582148
1847.471,-0.000608463
1845.543,-0.000609652
1843.614,-0.00059104
1841.686,-0.000554072
1839.757,-0.000480747
1837.829,-0.000424788
1835.9,-0.000443769
1833.972,-0.000505931
1832.043,-0.000554227
1830.115,-0.000533131
1828.187,-0.00046156
1826.258,-0.000444959
1824.33,-0.00049652
1822.401,-0.000532976
1820.473,-0.000530028
1818.544,-0.00052615
1816.616,-0.000553297
1814.687,-0.000607429
1812.759,-0.000654422
1810.83,-0.000658092
1808.902,-0.000621698
1806.973,-0.000591868
1805.045,-0.000593987
1803.116,-0.000609808
1801.188,-0.000610686
1799.26,-0.000584526
1797.331,-0.0005625
1795.403,-0.000579252
1793.474,-0.000611203
1791.546,-0.000619113
1789.617,-0.000603604
1787.689,-0.000589955
1785.76,-0.000591144
1783.832,-0.000596779
1781.903,-0.000598382
1779.975,-0.000599209
1778.046,-0.000598951
1776.118,-0.000599261
1774.189,-0.000606137
1772.261,-0.000620613
1770.333,-0.000640051
1768.404,-0.000664812
1766.476,-0.000697171
1764.547,-0.000728028
1762.619,-0.000739708
1760.69,-0.000725909
1758.762,-0.000709369
1756.833,-0.000712625
1754.905,-0.000719138
1752.976,-0.000714434
1751.048,-0.00071092
1749.119,-0.000710403
1747.191,-0.000708232
1745.262,-0.000715003
1743.334,-0.000736091
1741.406,-0.000754076
1739.477,-0.00075697
1737.549,-0.000765601
1735.62,-0.000800278
1733.692,-0.000848644
1731.763,-0.000888016
1729.835,-0.000911213
1727.906,-0.00092883
1725.978,-0.00095652
1724.049,-0.000995778
1722.121,-0.001039475
1720.192,-0.001077073
1718.264,-0.001099434
1716.335,-0.001112602
1714.407,-0.001121123
1712.479,-0.001112705
1710.55,-0.00107134
1708.622,-0.000990096
1706.693,-0.000862905
1704.765,-0.000674479
1702.836,-0.000409996
1700.908,-5.54E-05
1698.979,0.000412326
1697.051,0.001019109
1695.122,0.001784434
1693.194,0.002708516
1691.265,0.003786074
1689.337,0.005031471
1687.408,0.006441788
1685.48,0.007987299
1683.552,0.009637411
1681.623,0.01133835
1679.695,0.01304018
1677.766,0.01471984
1675.838,0.01633374
1673.909,0.01783705
1671.981,0.01921623
1670.052,0.02046859
1668.124,0.02160193
1666.195,0.02261929
1664.267,0.02350674
1662.338,0.02426498
1660.41,0.02491027
1658.481,0.02544616
1656.553,0.02586248
1654.625,0.02614569
1652.696,0.02627176
1650.768,0.02620277
1648.839,0.02593194
1646.911,0.0255244
1644.982,0.02506149
1643.054,0.02458189
1641.125,0.02411859
1639.197,0.0236912
1637.268,0.02327405
1635.34,0.02285232
1633.411,0.0224559
1631.483,0.02210346
1629.554,0.02177804
1627.626,0.02147769
1625.698,0.02122567
1623.769,0.02101696
1621.841,0.02081752
1619.912,0.02061791
1617.984,0.0204042
1616.055,0.02011554
1614.127,0.01970261
1612.198,0.01916255
1610.27,0.01849584
1608.341,0.01771573
1606.413,0.01686685
1604.484,0.01597177
1602.556,0.01504248
1600.627,0.01412213
1598.699,0.0132373
1596.771,0.01238495
1594.842,0.01158326
1592.914,0.0108748
1590.985,0.01029261
1589.057,0.009847661
1587.128,0.00954259
1585.2,0.009365628
1583.271,0.009292446
1581.343,0.009327171
1579.414,0.009483533
1577.486,0.009749617
1575.557,0.01013262
1573.629,0.0106406
1571.7,0.01123901
1569.772,0.01190379
1567.844,0.01263222
1565.915,0.01341499
1563.987,0.01425434
1562.058,0.01515406
1560.13,0.01610018
1558.201,0.01707987
1556.273,0.01806815
1554.344,0.01901484
1552.416,0.0198662
1550.487,0.0205525
1548.559,0.02100457
1546.63,0.0212021
1544.702,0.02116475
1542.773,0.0209219
1540.845,0.02051798
1538.917,0.02000919
1536.988,0.01943128
1535.06,0.01879156
1533.131,0.01809929
1531.203,0.01737275
1529.274,0.01663534
1527.346,0.01591489
1525.417,0.0152319
1523.489,0.01459997
1521.56,0.01404625
1519.632,0.01356888
1517.703,0.01305154
1515.775,0.01234375
1513.846,0.01144291
1511.918,0.01048101
1509.99,0.009568708
1508.061,0.008740134
1506.133,0.008004148
1504.204,0.007369814
1502.276,0.006832614
1500.347,0.006373064
1498.419,0.005955199
1496.49,0.005551764
1494.562,0.005177125
1492.633,0.004854662
1490.705,0.004588263
1488.776,0.004389433
1486.848,0.004278968
1484.919,0.004261714
1482.991,0.004333948
1481.063,0.004498435
1479.134,0.004757792
1477.206,0.005115201
1475.277,0.005576069
1473.349,0.006131932
1471.42,0.006745397
1469.492,0.007353069
1467.563,0.007909341
1465.635,0.008431141
1463.706,0.008972596
1461.778,0.009573233
1459.849,0.0102197
1457.921,0.01082923
1455.992,0.01128096
1454.064,0.0114911
1452.135,0.01147199
1450.207,0.01130163
1448.279,0.01104988
1446.35,0.01075755
1444.422,0.01044863
1442.493,0.01012526
1440.565,0.009772518
1438.636,0.009387715
1436.708,0.00899638
1434.779,0.008637428
1432.851,0.008346875
1430.922,0.008153677
1428.994,0.008062134
1427.065,0.008049423
1425.137,0.008087344
1423.208,0.008139619
1421.28,0.008151145
1419.352,0.00807263
1417.423,0.00789276
1415.495,0.007638558
1413.566,0.007351411
1411.638,0.007067925
1409.709,0.006807896
1407.781,0.006575222
1405.852,0.006370016
1403.924,0.006190167
1401.995,0.006029789
1400.067,0.005889885
1398.138,0.005781136
1396.21,0.005701972
1394.281,0.005639449
1392.353,0.005589416
1390.425,0.005539939
1388.496,0.005464778
1386.568,0.005348535
1384.639,0.00519465
1382.711,0.005023798
1380.782,0.004865814
1378.854,0.004737615
1376.925,0.004641267
1374.997,0.00457976
1373.068,0.004560899
1371.14,0.004579656
1369.211,0.004608642
1367.283,0.004627087
1365.354,0.004642131
1363.426,0.004670049
1361.498,0.004711969
1359.569,0.004756614
1357.641,0.004794669
1355.712,0.004823016
1353.784,0.004840265
1351.855,0.004847464
1349.927,0.004852018
1347.998,0.004859662
1346.07,0.004861049
1344.141,0.004841103
1342.213,0.004802678
1340.284,0.004756405
1338.356,0.004706343
1336.427,0.00466411
1334.499,0.004649379
1332.571,0.004675806
1330.642,0.004741514
1328.714,0.004837543
1326.785,0.004956214
1324.857,0.005083876
1322.928,0.005203532
1321,0.005300868
1319.071,0.005361692
1317.143,0.005381295
1315.214,0.00537089
1313.286,0.005340411
1311.357,0.005295785
1309.429,0.005252996
1307.5,0.005226141
1305.572,0.005219539
1303.644,0.0052318
1301.715,0.005256638
1299.787,0.005287504
1297.858,0.005327885
1295.93,0.005386249
1294.001,0.005452903
1292.073,0.005512856
1290.144,0.00556802
1288.216,0.005618339
1286.287,0.005653217
1284.359,0.005666697
1282.43,0.005664677
1280.502,0.005659957
1278.573,0.005669686
1276.645,0.005706746
1274.717,0.005769252
1272.788,0.005857874
1270.86,0.00598294
1268.931,0.006138758
1267.003,0.006310444
1265.074,0.006496649
1263.146,0.006700862
1261.217,0.006919821
1259.289,0.00715318
1257.36,0.007406913
1255.432,0.007674705
1253.503,0.007934728
1251.575,0.008174541
1249.646,0.008395011
1247.718,0.008588527
1245.79,0.008724551
1243.861,0.008770297
1241.933,0.008716152
1240.004,0.008568277
1238.076,0.008339671
1236.147,0.008051981
1234.219,0.007729591
1232.29,0.007391325
1230.362,0.007048982
1228.433,0.00672263
1226.505,0.006439607
1224.576,0.006208784
1222.648,0.006027086
1220.719,0.005894896
1218.791,0.005816893
1216.863,0.005808733
1214.934,0.005876896
1213.006,0.005992729
1211.077,0.006120695
1209.149,0.006233862
1207.22,0.006302643
1205.292,0.006309393
1203.363,0.006257471
1201.435,0.006162887
1199.506,0.006044278
1197.578,0.00591497
1195.649,0.005783418
1193.721,0.005649834
1191.792,0.005508819
1189.864,0.005356004
1187.936,0.005185063
1186.007,0.004989756
1184.079,0.004785011
1182.15,0.004606026
1180.222,0.004468017
1178.293,0.004357297
1176.365,0.004256747
1174.436,0.004155515
1172.508,0.004051589
1170.579,0.003949935
1168.651,0.003861676
1166.722,0.00380229
1164.794,0.00377743
1162.865,0.003763669
1160.937,0.003731188
1159.009,0.003687301
1157.08,0.003648168
1155.152,0.003606612
1153.223,0.003560571
1151.295,0.003520354
1149.366,0.003494911
1147.438,0.00349204
1145.509,0.003519024
1143.581,0.003579885
1141.652,0.003665841
1139.724,0.003752912
1137.795,0.003823285
1135.867,0.003881525
1133.938,0.003936979
1132.01,0.0039811
1130.082,0.003998578
1128.153,0.00397901
1126.225,0.003918276
1124.296,0.003826132
1122.368,0.003720823
1120.439,0.003614156
1118.511,0.003509107
1116.582,0.003413476
1114.654,0.003346768
1112.725,0.003312283
1110.797,0.003285209
1108.868,0.003260483
1106.94,0.003253781
1105.011,0.003259857
1103.083,0.003265543
1101.155,0.003266039
1099.226,0.003256962
1097.298,0.003237637
1095.369,0.003216617
1093.441,0.00321148
1091.512,0.003233908
1089.584,0.003272898
1087.655,0.003310144
1085.727,0.00334549
1083.798,0.003374446
1081.87,0.003377812
1079.941,0.003355246
1078.013,0.003311527
1076.084,0.003242305
1074.156,0.003155807
1072.228,0.003062704
1070.299,0.00297082
1068.371,0.002895216
1066.442,0.002859777
1064.514,0.002887111
1062.585,0.002975433
1060.657,0.003084785
1058.728,0.003154842
1056.8,0.003169496
1054.871,0.003164464
1052.943,0.003149236
1051.014,0.003114298
1049.086,0.003072871
1047.157,0.003031761
1045.229,0.002974182
1043.301,0.002891072
1041.372,0.002799511
1039.444,0.002718883
1037.515,0.002655877
1035.587,0.002616577
1033.658,0.002598139
1031.73,0.002575041
1029.801,0.002521272
1027.873,0.002442596
1025.944,0.002361514
1024.016,0.002285652
1022.087,0.002218076
1020.159,0.002160423
1018.23,0.002104104
1016.302,0.002051148
1014.374,0.002010914
1012.445,0.001978174
1010.517,0.001943564
1008.588,0.001903236
1006.66,0.001866891
1004.731,0.001846951
1002.803,0.001835227
1000.874,0.001823269
998.946,0.001818746
997.017,0.001825323
995.089,0.001840738
993.16,0.001863381
991.232,0.001879344
989.303,0.001871102
987.375,0.001841258
985.447,0.001802136
983.518,0.001761847
981.59,0.001720289
979.661,0.0016666
977.733,0.001593691
975.804,0.001508871
973.876,0.001422847
971.947,0.001338917
970.019,0.00126209
968.09,0.001204071
966.162,0.001162073
964.233,0.001122986
962.305,0.001088963
960.376,0.001065426
958.448,0.001047755
956.52,0.001029721
954.591,0.001003904
952.663,0.000964339
950.734,0.000914971
948.806,0.000859488
946.877,0.000797346
944.949,0.000739648
943.02,0.000709466
941.092,0.000707911
939.163,0.000714886
937.235,0.000731091
935.306,0.000756451
933.378,0.000765683
931.449,0.000758655
929.521,0.000759641
927.593,0.000769028
925.664,0.000782539
923.736,0.000805541
921.807,0.000817186
919.879,0.000791122
917.95,0.000744186
916.022,0.0007069
914.093,0.000683565
912.165,0.000667024
910.236,0.000650924
908.308,0.000627722
906.379,0.000597004
904.451,0.000567403
902.522,0.000545294
900.594,0.000528628
898.666,0.000512663
896.737,0.00050209
894.809,0.000508206
892.88,0.00052951
890.952,0.000546097
889.023,0.000541665
887.095,0.000525518
885.166,0.000519531
883.238,0.000532283
881.309,0.000562867
879.381,0.000596589
877.452,0.000608254
875.524,0.000598896
873.595,0.000588424
871.667,0.000582644
869.739,0.000566755
867.81,0.000528291
865.882,0.000489365
863.953,0.000482005
862.025,0.00050152
860.096,0.000518262
858.168,0.000523108
856.239,0.000523341
854.311,0.00051878
852.382,0.000504914
850.454,0.000491257
848.525,0.000516862
846.597,0.000569502
844.668,0.000583732
842.74,0.000577926
840.812,0.000601411
838.883,0.000632026
836.955,0.00065305
835.026,0.000696062
833.098,0.000757955
831.169,0.000798643
829.241,0.000829816
827.312,0.000887553
825.384,0.000952794
823.455,0.000981124
821.527,0.000989946
819.598,0.00103325
817.67,0.001103132
815.741,0.001156155
813.813,0.001199658
811.885,0.001264012
809.956,0.001327232
808.028,0.001358236
806.099,0.001370986
804.171,0.001385866
802.242,0.001417003
800.314,0.001458792
798.385,0.001483857
796.457,0.001479545
794.528,0.001470947
792.6,0.001485701
790.671,0.001509416
788.743,0.001551655
786.814,0.001631625
784.886,0.001688377
782.958,0.001678372
781.029,0.001656778
779.101,0.001646202
777.172,0.001608708
775.244,0.001576907
773.315,0.001611618
771.387,0.001686298
769.458,0.001747786
767.53,0.001773258
765.601,0.001758209
763.673,0.001770477
761.744,0.001858623
759.816,0.001926429
757.887,0.001941146
755.959,0.001992268
754.031,0.002055361
752.102,0.00203367
750.174,0.001986469
748.245,0.002069874
746.317,0.002250315
744.388,0.002379343
742.46,0.002405086
740.531,0.00230621
738.603,0.002116226
736.674,0.001934515
734.746,0.001821059
732.817,0.001814951
730.889,0.001898037
728.96,0.001968865
727.032,0.002007508
725.104,0.002032474
723.175,0.001938442
721.247,0.00176507
719.318,0.001780172
717.39,0.00197547
715.461,0.002082255
713.533,0.002101841
711.604,0.002103376
709.676,0.00199942
707.747,0.001961532
705.819,0.002178452
703.89,0.002476023
701.962,0.002595821
700.033,0.002415992
698.105,0.002113755
696.177,0.001931603
694.248,0.001771568
692.32,0.001527158
690.391,0.001375556
688.463,0.00145635
686.534,0.001590989
684.606,0.001475519
682.677,0.00125464
680.749,0.001403421
678.82,0.001769853
676.892,0.001769827
674.963,0.001556202
673.035,0.001417237
671.106,0.000437719
669.178,-0.001783036
667.25,-0.00251776
665.321,-0.00037596
663.393,0.001544174
661.464,0.001854464
659.536,0.001420899
657.607,0.001354341
655.679,0.001819266
653.75,0.001953705
651.822,0.00112649
649.893,0.000673246
647.965,0.002188364
646.036,0.004393486
644.108,0.005183962
642.179,0.004306235
640.251,0.002745584
638.323,0.001715767
636.394,0.001331802
634.466,0.001058446
632.537,0.000834744
630.609,0.000846156
628.68,0.00210733
626.752,0.005037258
624.823,0.007468928
622.895,0.007807122
620.966,0.007573174
619.038,0.007429848
617.109,0.005283574
615.181,0.001616139
613.252,0.000510901
611.324,0.002738498
609.396,0.005110434
607.467,0.005573264
605.539,0.005286482
603.61,0.007424819
601.682,0.01203109
599.753,0.01461464
597.825,0.0127259
595.896,0.009386181
593.968,0.00826938
592.039,0.009829946
590.111,0.01261391
588.182,0.01463852
586.254,0.01573698
584.325,0.01614841
582.397,0.01438198
580.469,0.01257396
578.54,0.0148394
576.612,0.01888215
574.683,0.01945971
572.755,0.01867805
570.826,0.02215761
568.898,0.02835442
566.969,0.03295152
565.041,0.03335144
563.112,0.02784283
561.184,0.01941764
559.255,0.01482783
557.327,0.01637406
555.398,0.02108904
553.47,0.02530228
551.542,0.0243855
549.613,0.01920609
547.685,0.01785256
545.756,0.02084919
543.828,0.02243431
541.899,0.02285928
539.971,0.02254163
538.042,0.01870445
536.114,0.01512141
534.185,0.01742844
532.257,0.02069816
530.328,0.01952812
528.4,0.0166043
526.471,0.01498002
524.543,0.01542085
522.615,0.01764422
520.686,0.02364503
518.758,0.03270288
516.829,0.03577837
514.901,0.0311044
512.972,0.02725052
511.044,0.02694755
509.115,0.02707016
507.187,0.0262356
505.258,0.02423246
503.33,0.02139013
501.401,0.01922465
499.473,0.02028093
497.544,0.02576896
495.616,0.03090357
493.688,0.02843771
491.759,0.01994977
489.831,0.01485209
487.902,0.01696204
485.974,0.02112154
484.045,0.02391124
482.117,0.02404887
480.188,0.01907588
478.26,0.01392402
476.331,0.0152578
474.403,0.01972588
472.474,0.02083995
470.546,0.01822834
468.617,0.01645883
466.689,0.0171983
464.76,0.01867672
462.832,0.02086893
460.904,0.02283923
458.975,0.02378375
457.047,0.02434051
455.118,0.0232303
453.19,0.02038681
451.261,0.01796786
449.333,0.01818337
447.404,0.02163074
445.476,0.0246754
443.547,0.0236517
441.619,0.01976007
439.69,0.01862857
437.762,0.02338544
435.833,0.0290639
433.905,0.03063507
431.977,0.02868287
430.048,0.02533715
428.12,0.02272326
426.191,0.02127751
424.263,0.02063528
422.334,0.0210544
420.406,0.0215275
418.477,0.02239247
416.549,0.02374689
414.62,0.02333241
412.692,0.02202336
410.763,0.02198412
408.835,0.02290138
406.906,0.02446072
404.978,0.02580382
403.05,0.02611897
401.121,0.02585198
399.193,0.02445669
