Wavenumbers [1/cm],Absorbance
3997.712,4.94E-06
3995.783,-1.04E-07
3993.855,6.34E-06
3991.926,1.43E-05
3989.998,4.58E-06
3988.069,-7.20E-06
3986.141,-5.95E-06
3984.212,2.95E-06
3982.284,1.37E-05
3980.355,2.35E-05
3978.427,2.53E-05
3976.499,1.12E-05
3974.57,-4.87E-06
3972.642,-8.85E-06
3970.713,-1.12E-05
3968.785,-1.62E-05
3966.856,-1.48E-05
3964.928,-6.57E-06
3962.999,3.88E-07
3961.071,-3.26E-06
3959.142,-1.50E-05
3957.214,-1.70E-05
3955.285,-9.06E-06
3953.357,-5.90E-06
3951.428,-3.73E-06
3949.5,-4.66E-07
3947.572,-6.73E-07
3945.643,2.28E-06
3943.715,6.29E-06
3941.786,-5.44E-06
3939.858,-3.03E-05
3937.929,-4.41E-05
3936.001,-3.91E-05
3934.072,-3.02E-05
3932.144,-3.25E-05
3930.215,-4.31E-05
3928.287,-4.12E-05
3926.358,-2.93E-05
3924.43,-3.01E-05
3922.501,-4.51E-05
3920.573,-5.04E-05
3918.645,-3.41E-05
3916.716,-1.67E-05
3914.788,-1.79E-05
3912.859,-2.99E-05
3910.931,-3.53E-05
3909.002,-3.33E-05
3907.074,-4.04E-05
3905.145,-5.44E-05
3903.217,-5.04E-05
3901.288,-3.54E-05
3899.36,-3.79E-05
3897.431,-5.31E-05
3895.503,-6.14E-05
3893.574,-6.01E-05
3891.646,-5.48E-05
3889.718,-4.85E-05
3887.789,-4.06E-05
3885.861,-3.92E-05
3883.932,-5.04E-05
3882.004,-6.19E-05
3880.075,-6.48E-05
3878.147,-6.51E-05
3876.218,-6.58E-05
3874.29,-6.14E-05
3872.361,-5.33E-05
3870.433,-5.43E-05
3868.504,-6.66E-05
3866.576,-6.83E-05
3864.647,-5.16E-05
3862.719,-3.75E-05
3860.791,-3.85E-05
3858.862,-4.13E-05
3856.934,-3.55E-05
3855.005,-2.96E-05
3853.077,-2.82E-05
3851.148,-3.65E-05
3849.22,-5.14E-05
3847.291,-5.38E-05
3845.363,-4.40E-05
3843.434,-3.62E-05
3841.506,-4.09E-05
3839.577,-5.53E-05
3837.649,-6.28E-05
3835.72,-6.50E-05
3833.792,-7.27E-05
3831.864,-8.08E-05
3829.935,-8.39E-05
3828.007,-8.40E-05
3826.078,-8.62E-05
3824.15,-8.37E-05
3822.221,-6.54E-05
3820.293,-5.30E-05
3818.364,-6.93E-05
3816.436,-9.10E-05
3814.507,-9.31E-05
3812.579,-8.63E-05
3810.65,-7.95E-05
3808.722,-7.27E-05
3806.793,-7.54E-05
3804.865,-8.62E-05
3802.937,-9.10E-05
3801.008,-9.49E-05
3799.08,-0.000103997
3797.151,-0.000110001
3795.223,-0.000111658
3793.294,-0.000112589
3791.366,-0.000119214
3789.437,-0.0001291
3787.509,-0.0001232
3785.58,-0.000105395
3783.652,-0.000109743
3781.723,-0.000138571
3779.795,-0.000153632
3777.866,-0.000147007
3775.938,-0.000145351
3774.01,-0.000152752
3772.081,-0.000153114
3770.153,-0.000145144
3768.224,-0.000144213
3766.296,-0.000153994
3764.367,-0.000163983
3762.439,-0.000164759
3760.51,-0.000148612
3758.582,-0.000123252
3756.653,-0.000116885
3754.725,-0.000141159
3752.796,-0.000167812
3750.868,-0.000180543
3748.939,-0.000205227
3747.011,-0.000263129
3745.083,-0.000355631
3743.154,-0.000471386
3741.226,-0.000593212
3739.297,-0.000740225
3737.369,-0.000922579
3735.44,-0.001096077
3733.512,-0.001245089
3731.583,-0.001378877
3729.655,-0.001470626
3727.726,-0.001502408
3725.798,-0.00147527
3723.869,-0.001383109
3721.941,-0.001233783
3720.012,-0.001054452
3718.084,-0.000857428
3716.156,-0.00068063
3714.227,-0.000631624
3712.299,-0.00074865
3710.37,-0.000934048
3708.442,-0.001107955
3706.513,-0.001258149
3704.585,-0.001365407
3702.656,-0.001418407
3700.728,-0.001443846
3698.799,-0.001455095
3696.871,-0.00143172
3694.942,-0.001376916
3693.014,-0.001318698
3691.085,-0.001260421
3689.157,-0.001201
3687.229,-0.001148748
3685.3,-0.001115081
3683.372,-0.001118747
3681.443,-0.00114818
3679.515,-0.001178954
3677.586,-0.001213442
3675.658,-0.001246276
3673.729,-0.001268835
3671.801,-0.001299652
3669.872,-0.001354104
3667.944,-0.00140179
3666.015,-0.001422535
3664.087,-0.001466137
3662.158,-0.001544919
3660.23,-0.001605067
3658.302,-0.00165092
3656.373,-0.001729462
3654.445,-0.001819487
3652.516,-0.001869699
3650.588,-0.001901865
3648.659,-0.001964695
3646.731,-0.00203978
3644.802,-0.002099137
3642.874,-0.002160393
3640.945,-0.002240749
3639.017,-0.002357187
3637.088,-0.002516628
3635.16,-0.002672666
3633.231,-0.00278976
3631.303,-0.00289376
3629.375,-0.003006527
3627.446,-0.003114742
3625.518,-0.003194921
3623.589,-0.003218613
3621.661,-0.003174672
3619.732,-0.003086521
3617.804,-0.002959223
3615.875,-0.002785593
3613.947,-0.002651054
3612.018,-0.002654399
3610.09,-0.002747782
3608.161,-0.002859199
3606.233,-0.003004008
3604.304,-0.003165781
3602.376,-0.003268355
3600.448,-0.003276576
3598.519,-0.003249805
3596.591,-0.003255663
3594.662,-0.003279145
3592.734,-0.003294714
3590.805,-0.00329456
3588.877,-0.003260442
3586.948,-0.003200523
3585.02,-0.003137615
3583.091,-0.003074081
3581.163,-0.003014393
3579.234,-0.002984521
3577.306,-0.003000049
3575.377,-0.003039534
3573.449,-0.003069454
3571.521,-0.003071202
3569.592,-0.003056448
3567.664,-0.003070996
3565.735,-0.00313818
3563.807,-0.003196823
3561.878,-0.003202681
3559.95,-0.003229096
3558.021,-0.003308535
3556.093,-0.003342495
3554.164,-0.003299184
3552.236,-0.003253299
3550.307,-0.003238757
3548.379,-0.003258181
3546.45,-0.003305504
3544.522,-0.003355287
3542.594,-0.003382977
3540.665,-0.003378046
3538.737,-0.003401264
3536.808,-0.003501677
3534.88,-0.003630408
3532.951,-0.003743652
3531.023,-0.00380796
3529.094,-0.003792718
3527.166,-0.003752839
3525.237,-0.00375674
3523.309,-0.003802982
3521.38,-0.003897094
3519.452,-0.004050533
3517.523,-0.004192331
3515.595,-0.004224274
3513.667,-0.004182999
3511.738,-0.004214276
3509.81,-0.004344333
3507.881,-0.004493721
3505.953,-0.004616779
3504.024,-0.004638703
3502.096,-0.004557918
3500.167,-0.004537989
3498.239,-0.004646693
3496.31,-0.004760133
3494.382,-0.004807395
3492.453,-0.004853935
3490.525,-0.00494526
3488.596,-0.005048848
3486.668,-0.00513522
3484.74,-0.005221422
3482.811,-0.005319676
3480.883,-0.005404716
3478.954,-0.005453595
3477.026,-0.005482123
3475.097,-0.005565496
3473.169,-0.005720493
3471.24,-0.005844686
3469.312,-0.00594571
3467.383,-0.006090361
3465.455,-0.00620909
3463.526,-0.006277474
3461.598,-0.006331408
3459.669,-0.006367378
3457.741,-0.006447775
3455.813,-0.006592362
3453.884,-0.006741895
3451.956,-0.006893977
3450.027,-0.007011467
3448.099,-0.007032913
3446.17,-0.007004946
3444.242,-0.007051914
3442.313,-0.007236423
3440.385,-0.007460601
3438.456,-0.007582975
3436.528,-0.007636238
3434.599,-0.007765478
3432.671,-0.00795365
3430.742,-0.00809113
3428.814,-0.008221759
3426.885,-0.008398815
3424.957,-0.008520367
3423.029,-0.008558541
3421.1,-0.00864838
3419.172,-0.008782951
3417.243,-0.008818058
3415.315,-0.008800962
3413.386,-0.008890548
3411.458,-0.009089589
3409.529,-0.009273134
3407.601,-0.009391856
3405.672,-0.009503456
3403.744,-0.00961452
3401.815,-0.009691686
3399.887,-0.009747881
3397.958,-0.009811611
3396.03,-0.009937574
3394.102,-0.01010331
3392.173,-0.01018236
3390.245,-0.01022039
3388.316,-0.01031181
3386.388,-0.01039547
3384.459,-0.01040614
3382.531,-0.0102748
3380.602,-0.01010427
3378.674,-0.01013128
3376.745,-0.01028628
3374.817,-0.01038319
3372.888,-0.01042939
3370.96,-0.01048645
3369.031,-0.01057109
3367.103,-0.0107083
3365.175,-0.01090141
3363.246,-0.01098769
3361.318,-0.01084289
3359.389,-0.010679
3357.461,-0.01069658
3355.532,-0.01072234
3353.604,-0.01059605
3351.675,-0.01042524
3349.747,-0.01027424
3347.818,-0.01014388
3345.89,-0.0101373
3343.961,-0.01030023
3342.033,-0.01051803
3340.104,-0.01068041
3338.176,-0.01076775
3336.248,-0.01071229
3334.319,-0.01048695
3332.391,-0.01028562
3330.462,-0.01022221
3328.534,-0.01020851
3326.605,-0.01022944
3324.677,-0.01023035
3322.748,-0.01006219
3320.82,-0.00978939
3318.891,-0.009549698
3316.963,-0.009331562
3315.034,-0.009139526
3313.106,-0.009059929
3311.177,-0.009080716
3309.249,-0.00895988
3307.321,-0.008550977
3305.392,-0.00817065
3303.464,-0.008164706
3301.535,-0.008330155
3299.607,-0.008243145
3297.678,-0.007902103
3295.75,-0.007620926
3293.821,-0.00751276
3291.893,-0.007491897
3289.964,-0.007536624
3288.036,-0.007604698
3286.107,-0.007611006
3284.179,-0.007573918
3282.25,-0.007542323
3280.322,-0.007578243
3278.394,-0.007707195
3276.465,-0.007768988
3274.537,-0.007594269
3272.608,-0.007258469
3270.68,-0.00701218
3268.751,-0.007023438
3266.823,-0.007287489
3264.894,-0.007650837
3262.966,-0.007836974
3261.037,-0.007672049
3259.109,-0.00734028
3257.18,-0.00721407
3255.252,-0.007413067
3253.323,-0.007728709
3251.395,-0.007960157
3249.467,-0.008105002
3247.538,-0.008206721
3245.61,-0.008248582
3243.681,-0.008279719
3241.753,-0.008311109
3239.824,-0.008227347
3237.896,-0.008096212
3235.967,-0.008082491
3234.039,-0.00807558
3232.11,-0.008044682
3230.182,-0.008110389
3228.253,-0.008100734
3226.325,-0.007912575
3224.396,-0.007766597
3222.468,-0.007756426
3220.54,-0.007700685
3218.611,-0.007524413
3216.683,-0.007494492
3214.754,-0.00769392
3212.826,-0.007757698
3210.897,-0.007542017
3208.969,-0.007327248
3207.04,-0.007192633
3205.112,-0.006964546
3203.183,-0.006733536
3201.255,-0.00662525
3199.326,-0.006547027
3197.398,-0.006484551
3195.469,-0.006464761
3193.541,-0.006477512
3191.613,-0.006504902
3189.684,-0.006466597
3187.756,-0.006325183
3185.827,-0.006095313
3183.899,-0.00584489
3181.97,-0.005692237
3180.042,-0.005640625
3178.113,-0.005623709
3176.185,-0.00561962
3174.256,-0.005598769
3172.328,-0.005585634
3170.399,-0.005605311
3168.471,-0.005582976
3166.542,-0.005478442
3164.614,-0.005310215
3162.686,-0.005112708
3160.757,-0.004983136
3158.829,-0.004982317
3156.9,-0.004975663
3154.972,-0.004807241
3153.043,-0.004605459
3151.115,-0.004529689
3149.186,-0.004472302
3147.258,-0.004358377
3145.329,-0.004272158
3143.401,-0.004232272
3141.472,-0.00417382
3139.544,-0.004050636
3137.615,-0.003864922
3135.687,-0.003682516
3133.759,-0.003579886
3131.83,-0.003547844
3129.902,-0.003506916
3127.973,-0.003397874
3126.045,-0.003242765
3124.116,-0.003096648
3122.188,-0.002972386
3120.259,-0.00285961
3118.331,-0.002759666
3116.402,-0.002659493
3114.474,-0.002533974
3112.545,-0.002398636
3110.617,-0.002269694
3108.688,-0.002131698
3106.76,-0.001989845
3104.832,-0.001844903
3102.903,-0.001685732
3100.975,-0.001510612
3099.046,-0.001326182
3097.118,-0.001177508
3095.189,-0.001077951
3093.261,-0.000951457
3091.332,-0.000770821
3089.404,-0.000600191
3087.475,-0.000476713
3085.547,-0.000368563
3083.618,-0.000211385
3081.69,1.38E-05
3079.761,0.000220838
3077.833,0.000322452
3075.905,0.000375276
3073.976,0.000486333
3072.048,0.000637858
3070.119,0.000741878
3068.191,0.000802844
3066.262,0.000875128
3064.334,0.000935309
3062.405,0.000978141
3060.477,0.0010531
3058.548,0.00112418
3056.62,0.001138299
3054.691,0.001133835
3052.763,0.001163085
3050.834,0.001220918
3048.906,0.001268191
3046.978,0.001295037
3045.049,0.001306772
3043.121,0.001301891
3041.192,0.001300385
3039.264,0.001313783
3037.335,0.001323935
3035.407,0.001335853
3033.478,0.001373297
3031.55,0.001410017
3029.621,0.001400512
3027.693,0.001368493
3025.764,0.001361014
3023.836,0.001375504
3021.907,0.001378205
3019.979,0.001346031
3018.051,0.0013055
3016.122,0.001306305
3014.194,0.001344629
3012.265,0.001392228
3010.337,0.001437988
3008.408,0.001471259
3006.48,0.001497234
3004.551,0.001526223
3002.623,0.001557942
3000.694,0.001598679
2998.766,0.001664313
2996.837,0.001752725
2994.909,0.001842272
2992.98,0.001932253
2991.052,0.002036245
2989.124,0.002151266
2987.195,0.00227592
2985.267,0.002414665
2983.338,0.002560433
2981.41,0.002703775
2979.481,0.002854357
2977.553,0.003034289
2975.624,0.003236568
2973.696,0.003416319
2971.767,0.003546608
2969.839,0.003667016
2967.91,0.003834358
2965.982,0.00403552
2964.053,0.004199816
2962.125,0.004280327
2960.197,0.004289189
2958.268,0.004274053
2956.34,0.004258263
2954.411,0.004228438
2952.483,0.004183324
2950.554,0.004131237
2948.626,0.004087753
2946.697,0.004083781
2944.769,0.00412797
2942.84,0.004211447
2940.912,0.004316065
2938.983,0.004412523
2937.055,0.004492864
2935.126,0.004557786
2933.198,0.004598361
2931.27,0.004608642
2929.341,0.004582559
2927.413,0.004534557
2925.484,0.004480336
2923.556,0.004402037
2921.627,0.004291045
2919.699,0.00416103
2917.77,0.004026115
2915.842,0.003905816
2913.913,0.003802342
2911.985,0.003699414
2910.056,0.00359257
2908.128,0.00349178
2906.199,0.003410554
2904.271,0.003347551
2902.343,0.003295486
2900.414,0.003253807
2898.486,0.003212653
2896.557,0.003169939
2894.629,0.00314509
2892.7,0.003141674
2890.772,0.003148662
2888.843,0.003160813
2886.915,0.003166289
2884.986,0.003167749
2883.058,0.00318535
2881.129,0.003223241
2879.201,0.003267577
2877.272,0.003301954
2875.344,0.003320604
2873.416,0.003310718
2871.487,0.003243062
2869.559,0.003127647
2867.63,0.003015704
2865.702,0.002929198
2863.773,0.002867333
2861.845,0.002835596
2859.916,0.002815221
2857.988,0.002778903
2856.059,0.002734096
2854.131,0.002694607
2852.202,0.002647021
2850.274,0.002578973
2848.345,0.002494559
2846.417,0.002405711
2844.489,0.002331168
2842.56,0.002272068
2840.632,0.002211104
2838.703,0.002150902
2836.775,0.002106758
2834.846,0.002074712
2832.918,0.002045036
2830.989,0.002020095
2829.061,0.002003061
2827.132,0.001986625
2825.204,0.001967408
2823.275,0.001952769
2821.347,0.001944994
2819.418,0.001936205
2817.49,0.001919643
2815.562,0.001898427
2813.633,0.001876172
2811.705,0.001851838
2809.776,0.00183112
2807.848,0.001816302
2805.919,0.001798679
2803.991,0.001783031
2802.062,0.001777832
2800.134,0.001769151
2798.205,0.001745291
2796.277,0.001721381
2794.348,0.001709946
2792.42,0.001699421
2790.491,0.001679073
2788.563,0.0016554
2786.635,0.001633756
2784.706,0.001617906
2782.778,0.00161206
2780.849,0.001606136
2778.921,0.001590625
2776.992,0.001572777
2775.064,0.001560332
2773.135,0.001550227
2771.207,0.00153716
2769.278,0.001521365
2767.35,0.001509208
2765.421,0.00150061
2763.493,0.001484844
2761.564,0.001459181
2759.636,0.001436118
2757.708,0.001420951
2755.779,0.001408017
2753.851,0.001399396
2751.922,0.001398019
2749.994,0.001391111
2748.065,0.001368077
2746.137,0.001338709
2744.208,0.001318923
2742.28,0.0013129
2740.351,0.001310225
2738.423,0.001301579
2736.494,0.001291376
2734.566,0.001284028
2732.637,0.001272787
2730.709,0.001257859
2728.781,0.001250849
2726.852,0.001249006
2724.924,0.001235247
2722.995,0.001207653
2721.067,0.001186783
2719.138,0.001180034
2717.21,0.001167524
2715.281,0.001147824
2713.353,0.001142944
2711.424,0.001152444
2709.496,0.001154183
2707.567,0.001139986
2705.639,0.001123427
2703.71,0.001113306
2701.782,0.001100304
2699.854,0.001083358
2697.925,0.001075235
2695.997,0.001077
2694.068,0.001073393
2692.14,0.001055176
2690.211,0.001037505
2688.283,0.001035974
2686.354,0.001040048
2684.426,0.001034937
2682.497,0.00102832
2680.569,0.001027723
2678.64,0.001024947
2676.712,0.001015243
2674.783,0.00100476
2672.855,0.000997625
2670.927,0.000988415
2668.998,0.000973808
2667.07,0.000964935
2665.141,0.000966518
2663.213,0.000962523
2661.284,0.000944025
2659.356,0.000926878
2657.427,0.000918628
2655.499,0.000911599
2653.57,0.000908226
2651.642,0.000911988
2649.713,0.000915593
2647.785,0.000914426
2645.856,0.00091108
2643.928,0.000907215
2642,0.000899329
2640.071,0.0008854
2638.143,0.000866568
2636.214,0.000849424
2634.286,0.000836845
2632.357,0.000819001
2630.429,0.000804167
2628.5,0.000811273
2626.572,0.000823436
2624.643,0.000815785
2622.715,0.000801781
2620.786,0.000797943
2618.858,0.000792549
2616.929,0.000777897
2615.001,0.000758137
2613.073,0.000734877
2611.144,0.00071823
2609.216,0.000711359
2607.287,0.000694402
2605.359,0.000661528
2603.43,0.000636225
2601.502,0.00062933
2599.573,0.000626478
2597.645,0.000617016
2595.716,0.000598119
2593.788,0.00056971
2591.859,0.000547004
2589.931,0.000549881
2588.002,0.000570435
2586.074,0.000596978
2584.146,0.000624067
2582.217,0.000624041
2580.289,0.000604366
2578.36,0.000596019
2576.432,0.000578989
2574.503,0.000549233
2572.575,0.000531298
2570.646,0.000509139
2568.718,0.000472728
2566.789,0.000461119
2564.861,0.000503049
2562.932,0.000564603
2561.004,0.000589668
2559.075,0.000573105
2557.147,0.000550218
2555.219,0.000540551
2553.29,0.000534926
2551.362,0.000514244
2549.433,0.000494885
2547.505,0.000504267
2545.576,0.000502712
2543.648,0.000453733
2541.719,0.000398438
2539.791,0.000376623
2537.862,0.000388593
2535.934,0.000440103
2534.005,0.000500872
2532.077,0.000495041
2530.148,0.000440207
2528.22,0.000403724
2526.292,0.000381779
2524.363,0.000385717
2522.435,0.000425878
2520.506,0.000458968
2518.578,0.000474723
2516.649,0.000481021
2514.721,0.000470188
2512.792,0.000453604
2510.864,0.000445597
2508.935,0.00044811
2507.007,0.00043233
2505.078,0.000375613
2503.15,0.000346052
2501.221,0.000399475
2499.293,0.000458579
2497.365,0.000438315
2495.436,0.00036626
2493.508,0.000323851
2491.579,0.00034214
2489.651,0.000361467
2487.722,0.000326674
2485.794,0.000285487
2483.865,0.000278338
2481.937,0.000272354
2480.008,0.000256269
2478.08,0.000241532
2476.151,0.000234513
2474.223,0.0002471
2472.294,0.000267459
2470.366,0.000270826
2468.438,0.00027668
2466.509,0.00030178
2464.581,0.00031683
2462.652,0.000331467
2460.724,0.00035942
2458.795,0.000358047
2456.867,0.000316286
2454.938,0.000263755
2453.01,0.000220112
2451.081,0.000191573
2449.153,0.000165702
2447.224,0.000130899
2445.296,0.000103608
2443.367,0.000113784
2441.439,0.000175102
2439.51,0.000252617
2437.582,0.000286445
2435.654,0.000248033
2433.725,0.000181965
2431.797,0.000179323
2429.868,0.000219983
2427.94,0.00022133
2426.011,0.000176501
2424.083,9.70E-05
2422.154,1.55E-05
2420.226,-2.60E-05
2418.297,-1.20E-05
2416.369,4.19E-05
2414.44,8.77E-05
2412.512,0.000117072
2410.583,0.000145193
2408.655,0.000156768
2406.727,0.000131236
2404.798,9.15E-05
2402.87,7.19E-05
2400.941,6.40E-05
2399.013,6.04E-05
2397.084,6.35E-05
2395.156,7.89E-05
2393.227,0.000111609
2391.299,0.000122691
2389.37,4.08E-05
2387.442,-0.000200363
2385.513,-0.000710454
2383.585,-0.001675572
2381.656,-0.00328228
2379.728,-0.005626162
2377.8,-0.008636352
2375.871,-0.0120538
2373.943,-0.01552234
2372.014,-0.01877514
2370.086,-0.02172196
2368.157,-0.02434245
2366.229,-0.02659997
2364.3,-0.02838515
2362.372,-0.02955882
2360.443,-0.0300081
2358.515,-0.0296126
2356.586,-0.02821931
2354.658,-0.02560416
2352.729,-0.02154858
2350.801,-0.01709913
2348.873,-0.01495919
2346.944,-0.01656324
2345.016,-0.01999397
2343.087,-0.02216937
2341.159,-0.02264444
2339.23,-0.0224051
2337.302,-0.02186519
2335.373,-0.02128152
2333.445,-0.02090942
2331.516,-0.02060944
2329.588,-0.01991288
2327.659,-0.01882278
2325.731,-0.01783227
2323.802,-0.01706399
2321.874,-0.01612831
2319.946,-0.0147302
2318.017,-0.01301918
2316.089,-0.0113886
2314.16,-0.01007853
2312.232,-0.008933558
2310.303,-0.007738983
2308.375,-0.006529739
2306.446,-0.005438513
2304.518,-0.004508836
2302.589,-0.003737236
2300.661,-0.003131036
2298.732,-0.002637675
2296.804,-0.002206291
2294.875,-0.001862998
2292.947,-0.001609657
2291.019,-0.001352556
2289.09,-0.001031366
2287.162,-0.000702701
2285.233,-0.000442063
2283.305,-0.000319626
2281.376,-0.000352683
2279.448,-0.000447597
2277.519,-0.000538715
2275.591,-0.000675874
2273.662,-0.000818726
2271.734,-0.000820121
2269.805,-0.000739243
2267.877,-0.000744618
2265.948,-0.000812215
2264.02,-0.00078126
2262.092,-0.000653336
2260.163,-0.000573565
2258.235,-0.000500088
2256.306,-0.000392099
2254.378,-0.000386461
2252.449,-0.000446769
2250.521,-0.000416823
2248.592,-0.000435598
2246.664,-0.000556192
2244.735,-0.000482143
2242.807,-0.000269338
2240.878,-0.000138727
2238.95,4.69E-05
2237.021,0.000212032
2235.093,0.000218947
2233.165,0.00035284
2231.236,0.000605066
2229.308,0.000581296
2227.379,0.000301132
2225.451,0.000136156
2223.522,7.20E-05
2221.594,-0.000374978
2219.665,-0.001122104
2217.737,-0.001511334
2215.808,-0.001326647
2213.88,-0.000685799
2211.951,6.77E-05
2210.023,0.000509554
2208.094,0.000709103
2206.166,0.000801444
2204.238,0.00055929
2202.309,1.32E-05
2200.381,-0.00026168
2198.452,-8.79E-05
2196.524,-0.000125891
2194.595,-0.000564775
2192.667,-0.000813145
2190.738,-0.000916431
2188.81,-0.00102181
2186.881,-0.000583078
2184.953,9.83E-05
2183.024,-3.85E-05
2181.096,-0.000643049
2179.167,-0.000106534
2177.239,0.00174368
2175.311,0.003292043
2173.382,0.003442332
2171.454,0.002832574
2169.525,0.0027137
2167.597,0.002598998
2165.668,0.001338735
2163.74,0.000126057
2161.811,0.000319861
2159.883,0.001122545
2157.954,0.001215363
2156.026,0.000801055
2154.097,0.00087409
2152.169,0.00092226
2150.24,0.000341959
2148.312,-0.000422874
2146.384,-0.000986687
2144.455,-0.001369742
2142.527,-0.001368916
2140.598,-0.000866987
2138.67,-0.000469318
2136.741,-0.000608463
2134.813,-0.000846887
2132.884,-0.00081516
2130.956,-0.000590833
2129.027,-0.000366132
2127.099,-0.000352372
2125.17,-0.00048054
2123.242,-0.000508
2121.313,-0.000513481
2119.385,-0.0005807
2117.457,-0.000477954
2115.528,-0.000272752
2113.6,-0.000328472
2111.671,-0.000503811
2109.743,-0.000488246
2107.814,-0.000433787
2105.886,-0.000443821
2103.957,-0.000472783
2102.029,-0.000495744
2100.1,-0.000392409
2098.172,-0.000266699
2096.243,-0.000295672
2094.315,-0.000405289
2092.386,-0.000434046
2090.458,-0.000270372
2088.53,-3.61E-05
2086.601,7.05E-05
2084.673,8.44E-06
2082.744,-0.000284808
2080.816,-0.00072136
2078.887,-0.000879336
2076.959,-0.000585301
2075.03,-0.000159791
2073.102,0.000173497
2071.173,0.000357917
2069.245,0.000294967
2067.316,4.63E-05
2065.388,-0.000162792
2063.459,-0.000246261
2061.531,-0.000382323
2059.603,-0.000547764
2057.674,-0.000540887
2055.746,-0.000484264
2053.817,-0.000506138
2051.889,-0.000486332
2049.96,-0.000214542
2048.032,1.07E-05
2046.103,-0.000221993
2044.175,0.000416835
2042.246,0.002472456
2040.318,0.003557857
2038.389,0.002529213
2036.461,0.001371557
2034.532,0.001253471
2032.604,0.001158906
2030.676,0.000570565
2028.747,-0.000363804
2026.819,-0.001662318
2024.89,-0.002994701
2022.962,-0.003260031
2021.033,-0.001619509
2019.105,0.000745975
2017.176,0.002162218
2015.248,0.002031824
2013.319,0.000411264
2011.391,-0.001138318
2009.462,-0.000517256
2007.534,0.001651815
2005.605,0.002511821
2003.677,0.001543161
2001.749,0.000643536
1999.82,0.0003831
1997.892,0.000105964
1995.963,-0.00015622
1994.035,-0.000120508
1992.106,-8.47E-05
1990.178,-5.01E-05
1988.249,0.000220138
1986.321,0.000395614
1984.392,0.000223091
1982.464,-3.64E-05
1980.535,9.66E-06
1978.607,0.000877203
1976.678,0.002216958
1974.75,0.00240014
1972.822,0.001348213
1970.893,0.000284735
1968.965,-0.000116989
1967.036,-0.000135673
1965.108,-0.000778263
1963.179,-0.001901195
1961.251,-0.002079816
1959.322,-0.001236003
1957.394,-0.000878096
1955.465,-0.001224077
1953.537,-0.000919428
1951.608,0.000106068
1949.68,0.00049885
1947.751,6.66E-05
1945.823,-0.000207608
1943.895,1.11E-05
1941.966,0.000270308
1940.038,0.000181343
1938.109,-0.000147525
1936.181,-0.000324178
1934.252,-0.00037115
1932.324,-0.000549108
1930.395,-0.000606447
1928.467,-0.000266647
1926.538,9.72E-05
1924.61,0.000156198
1922.681,5.19E-05
1920.753,-7.55E-05
1918.824,-0.000127289
1916.896,-4.70E-05
1914.968,5.05E-06
1913.039,-5.81E-05
1911.111,-5.33E-05
1909.182,8.85E-05
1907.254,0.000133489
1905.325,-1.39E-05
1903.397,-0.000204192
1901.468,-0.000313625
1899.54,-0.000265457
1897.611,-0.000106948
1895.683,3.88E-05
1893.754,0.000100527
1891.826,5.60E-05
1889.897,-2.36E-05
1887.969,-8.39E-05
1886.041,-0.000137847
1884.112,-0.000152907
1882.184,-0.000112331
1880.255,-6.00E-05
1878.327,-2.32E-05
1876.398,-2.29E-05
1874.47,-6.87E-05
1872.541,-9.83E-05
1870.613,-6.33E-05
1868.684,-3.16E-05
1866.756,-7.49E-05
1864.827,-0.000154564
1862.899,-0.000183959
1860.97,-0.000131481
1859.042,-5.74E-05
1857.114,-3.08E-05
1855.185,-3.58E-05
1853.257,-5.39E-05
1851.328,-0.000113211
1849.4,-0.000185822
1847.471,-0.000217026
1845.543,-0.00019643
1843.614,-0.000131533
1841.686,-6.82E-05
1839.757,-6.62E-05
1837.829,-0.000105705
1835.9,-0.000124028
1833.972,-8.68E-05
1832.043,-2.23E-05
1830.115,-8.49E-06
1828.187,-4.89E-05
1826.258,-7.96E-05
1824.33,-0.000105964
1822.401,-0.000156478
1820.473,-0.000183182
1818.544,-0.000154771
1816.616,-0.000140072
1814.687,-0.000177024
1812.759,-0.000202278
1810.83,-0.000182406
1808.902,-0.000157513
1806.973,-0.000150061
1805.045,-0.00014561
1803.116,-0.000144109
1801.188,-0.000152235
1799.26,-0.0001645
1797.331,-0.000180336
1795.403,-0.000196482
1793.474,-0.000198655
1791.546,-0.000187426
1789.617,-0.000179974
1787.689,-0.000187581
1785.76,-0.000202071
1783.832,-0.000204606
1781.903,-0.00019731
1779.975,-0.000192859
1778.046,-0.00018872
1776.118,-0.000189858
1774.189,-0.000203054
1772.261,-0.000213662
1770.333,-0.000209315
1768.404,-0.00020352
1766.476,-0.000218837
1764.547,-0.00024978
1762.619,-0.000265147
1760.69,-0.000255212
1758.762,-0.000233015
1756.833,-0.000203778
1754.905,-0.000178318
1752.976,-0.000175575
1751.048,-0.000191773
1749.119,-0.000203106
1747.191,-0.000192756
1745.262,-0.000164966
1743.334,-0.000137433
1741.406,-0.000118852
1739.477,-0.000110416
1737.549,-0.000113935
1735.62,-0.000126305
1733.692,-0.00014473
1731.763,-0.000167502
1729.835,-0.000176299
1727.906,-0.000158083
1725.978,-0.000136967
1724.049,-0.000132154
1722.121,-0.000126978
1720.192,-0.000111554
1718.264,-9.65E-05
1716.335,-8.92E-05
1714.407,-8.90E-05
1712.479,-8.27E-05
1710.55,-4.53E-05
1708.622,3.71E-05
1706.693,0.000152858
1704.765,0.000302557
1702.836,0.000522693
1700.908,0.000835833
1698.979,0.001237246
1697.051,0.001736559
1695.122,0.002353758
1693.194,0.003075087
1691.265,0.003842846
1689.337,0.00461738
1687.408,0.005409942
1685.48,0.006232103
1683.552,0.007069346
1681.623,0.007914692
1679.695,0.008773097
1677.766,0.009633255
1675.838,0.01047759
1673.909,0.01131754
1671.981,0.01217807
1670.052,0.01305869
1668.124,0.01394407
1666.195,0.01483776
1664.267,0.0157443
1662.338,0.01662364
1660.41,0.01740279
1658.481,0.01803598
1656.553,0.01851307
1654.625,0.01881029
1652.696,0.01891392
1650.768,0.01887172
1648.839,0.01874256
1646.911,0.01857035
1644.982,0.01839205
1643.054,0.01821363
1641.125,0.01804095
1639.197,0.01788123
1637.268,0.01768825
1635.34,0.01738293
1633.411,0.0169224
1631.483,0.01631587
1629.554,0.015607
1627.626,0.01485116
1625.698,0.01408285
1623.769,0.01332612
1621.841,0.01260749
1619.912,0.01194407
1617.984,0.01134419
1616.055,0.01079255
1614.127,0.01025007
1612.198,0.009690929
1610.27,0.00913581
1608.341,0.008626391
1606.413,0.008169767
1604.484,0.007758841
1602.556,0.007395907
1600.627,0.007068794
1598.699,0.006771216
1596.771,0.006530362
1594.842,0.006370437
1592.914,0.00627504
1590.985,0.006224487
1589.057,0.006237854
1587.128,0.006332822
1585.2,0.006501484
1583.271,0.006736879
1581.343,0.007028461
1579.414,0.007363047
1577.486,0.007747878
1575.557,0.008199786
1573.629,0.008720747
1571.7,0.009299746
1569.772,0.00992234
1567.844,0.01058275
1565.915,0.01128276
1563.987,0.01201896
1562.058,0.01278865
1560.13,0.0135957
1558.201,0.014434
1556.273,0.01526625
1554.344,0.01603569
1552.416,0.01669578
1550.487,0.01720425
1548.559,0.01751357
1546.63,0.01760123
1544.702,0.01749126
1542.773,0.01722217
1540.845,0.01682296
1538.917,0.01632942
1536.988,0.01578033
1535.06,0.01519295
1533.131,0.01457288
1531.203,0.01393883
1529.274,0.01331118
1527.346,0.01269514
1525.417,0.01210141
1523.489,0.01155423
1521.56,0.01106781
1519.632,0.0106253
1517.703,0.0101632
1515.775,0.009604328
1513.846,0.008940225
1511.918,0.008239989
1509.99,0.00757191
1508.061,0.006958329
1506.133,0.006396154
1504.204,0.005885712
1502.276,0.005435681
1500.347,0.005053286
1498.419,0.004726074
1496.49,0.004423218
1494.562,0.004132151
1492.633,0.00386562
1490.705,0.00363851
1488.776,0.003458719
1486.848,0.003328769
1484.919,0.003253442
1482.991,0.003240532
1481.063,0.003294494
1479.134,0.003414989
1477.206,0.003601496
1475.277,0.003853005
1473.349,0.004152954
1471.42,0.004466841
1469.492,0.004757557
1467.563,0.005004342
1465.635,0.005220273
1463.706,0.005443309
1461.778,0.005701264
1459.849,0.005989895
1457.921,0.006268028
1455.992,0.006471871
1454.064,0.006561083
1452.135,0.006551307
1450.207,0.00648112
1448.279,0.006377766
1446.35,0.006262933
1444.422,0.006147133
1442.493,0.006019553
1440.565,0.005868736
1438.636,0.005703205
1436.708,0.005540149
1434.779,0.005387376
1432.851,0.005260254
1430.922,0.005190747
1428.994,0.005195672
1427.065,0.005264237
1425.137,0.005372594
1423.208,0.005489865
1421.28,0.00559348
1419.352,0.005678446
1417.423,0.005746641
1415.495,0.005801939
1413.566,0.005858713
1411.638,0.00592956
1409.709,0.006003411
1407.781,0.006059792
1405.852,0.006099221
1403.924,0.006124869
1401.995,0.006116967
1400.067,0.006064359
1398.138,0.005980158
1396.21,0.005873616
1394.281,0.005751651
1392.353,0.00562833
1390.425,0.0055084
1388.496,0.005382737
1386.568,0.005239555
1384.639,0.005074892
1382.711,0.004894296
1380.782,0.004713146
1378.854,0.004558806
1376.925,0.004447095
1374.997,0.004375469
1373.068,0.004346655
1371.14,0.004354473
1369.211,0.004366632
1367.283,0.004356983
1365.354,0.004329817
1363.426,0.004301817
1361.498,0.00428668
1359.569,0.004288536
1357.641,0.004293921
1355.712,0.004292719
1353.784,0.004295934
1351.855,0.004315987
1349.927,0.004350865
1347.998,0.004392623
1346.07,0.004438935
1344.141,0.004489098
1342.213,0.004537095
1340.284,0.004575051
1338.356,0.004597785
1336.427,0.004601395
1334.499,0.004582874
1332.571,0.00455742
1330.642,0.004555249
1328.714,0.004581905
1326.785,0.004618505
1324.857,0.004656783
1322.928,0.004697184
1321,0.004735678
1319.071,0.004767397
1317.143,0.004787785
1315.214,0.00478823
1313.286,0.004768575
1311.357,0.004746303
1309.429,0.004725681
1307.5,0.004693965
1305.572,0.004661153
1303.644,0.004648542
1301.715,0.004653199
1299.787,0.004658615
1297.858,0.004656234
1295.93,0.004651655
1294.001,0.004652231
1292.073,0.004651524
1290.144,0.004649091
1288.216,0.004655318
1286.287,0.004660054
1284.359,0.00464166
1282.43,0.004604901
1280.502,0.004566157
1278.573,0.004529378
1276.645,0.004502672
1274.717,0.004497258
1272.788,0.004507485
1270.86,0.00452535
1268.931,0.004550383
1267.003,0.004575732
1265.074,0.004596765
1263.146,0.004623869
1261.217,0.004666255
1259.289,0.004723169
1257.36,0.004787995
1255.432,0.004855395
1253.503,0.004928671
1251.575,0.005005415
1249.646,0.005073295
1247.718,0.005129345
1245.79,0.005170838
1243.861,0.005182469
1241.933,0.005156142
1240.004,0.005094273
1238.076,0.004996172
1236.147,0.004862594
1234.219,0.004702522
1232.29,0.00452365
1230.362,0.004330968
1228.433,0.004134608
1226.505,0.003943274
1224.576,0.003759674
1222.648,0.003590925
1220.719,0.003450969
1218.791,0.003343664
1216.863,0.003261474
1214.934,0.003204804
1213.006,0.003175076
1211.077,0.003159118
1209.149,0.00314071
1207.22,0.003112186
1205.292,0.003066562
1203.363,0.002996441
1201.435,0.002915073
1199.506,0.002846722
1197.578,0.002795525
1195.649,0.002752982
1193.721,0.002715992
1191.792,0.002686089
1189.864,0.00265908
1187.936,0.002629129
1186.007,0.002605926
1184.079,0.002609936
1182.15,0.002648454
1180.222,0.002709662
1178.293,0.002783384
1176.365,0.002874082
1174.436,0.002985077
1172.508,0.003107389
1170.579,0.003239697
1168.651,0.003402074
1166.722,0.003606169
1164.794,0.003835194
1162.865,0.004069122
1160.937,0.004300536
1159.009,0.004518628
1157.08,0.004708436
1155.152,0.004865342
1153.223,0.004979387
1151.295,0.005026836
1149.366,0.005000597
1147.438,0.004915632
1145.509,0.004782655
1143.581,0.004620468
1141.652,0.004462211
1139.724,0.004325347
1137.795,0.004218871
1135.867,0.004156012
1133.938,0.004143128
1132.01,0.004186277
1130.082,0.004278602
1128.153,0.004381065
1126.225,0.004454339
1124.296,0.004485567
1122.368,0.004484233
1120.439,0.00447555
1118.511,0.004476779
1116.582,0.004485305
1114.654,0.004508845
1112.725,0.004565974
1110.797,0.004656757
1108.868,0.004767397
1106.94,0.004879321
1105.011,0.004970746
1103.083,0.005027255
1101.155,0.005046346
1099.226,0.005045744
1097.298,0.005064993
1095.369,0.005143438
1093.441,0.005293426
1091.512,0.005502816
1089.584,0.005758707
1087.655,0.006044804
1085.727,0.006339231
1083.798,0.006637696
1081.87,0.006929159
1079.941,0.007152207
1078.013,0.007230635
1076.084,0.007122287
1074.156,0.006824462
1072.228,0.006382547
1070.299,0.005899147
1068.371,0.005505857
1066.442,0.005294736
1064.514,0.005277967
1062.585,0.005412537
1060.657,0.005648549
1058.728,0.005952365
1056.8,0.006301908
1054.871,0.006676678
1052.943,0.007054796
1051.014,0.007402174
1049.086,0.007673177
1047.157,0.007842756
1045.229,0.007919622
1043.301,0.007922205
1041.372,0.00786263
1039.444,0.007760027
1037.515,0.007664931
1035.587,0.007634053
1033.658,0.007691068
1031.73,0.007832925
1029.801,0.008038163
1027.873,0.008270726
1025.944,0.008503255
1024.016,0.00872772
1022.087,0.00893428
1020.159,0.009103691
1018.23,0.009226495
1016.302,0.009304533
1014.374,0.009338174
1012.445,0.009332329
1010.517,0.009308182
1008.588,0.009284857
1006.66,0.009268778
1004.731,0.009261109
1002.803,0.009258121
1000.874,0.009251616
998.946,0.00922089
997.017,0.009144693
995.089,0.009020986
993.16,0.008854196
991.232,0.008644796
989.303,0.008394694
987.375,0.008111767
985.447,0.007799163
983.518,0.007456182
981.59,0.007096158
979.661,0.006739166
977.733,0.006398729
975.804,0.006088379
973.876,0.00581684
971.947,0.005576515
970.019,0.005356188
968.09,0.00515423
966.162,0.004958859
964.233,0.004753003
962.305,0.00454387
960.376,0.004350211
958.448,0.004178253
956.52,0.004030556
954.591,0.003905163
952.663,0.003791453
950.734,0.003691086
948.806,0.003611102
946.877,0.003547783
944.949,0.003510516
943.02,0.003514013
941.092,0.003537761
939.163,0.003554568
937.235,0.003568323
935.306,0.003595076
933.378,0.003632741
931.449,0.003649944
929.521,0.003628904
927.593,0.003593379
925.664,0.003562163
923.736,0.003533325
921.807,0.003491466
919.879,0.003416659
917.95,0.003316509
916.022,0.003218443
914.093,0.003131271
912.165,0.003049252
910.236,0.002977023
908.308,0.002915334
906.379,0.002863816
904.451,0.002830854
902.522,0.002800657
900.594,0.002758245
898.666,0.002720368
896.737,0.002682391
894.809,0.002614728
892.88,0.002528068
890.952,0.002463344
889.023,0.002423593
887.095,0.002378667
885.166,0.002315839
883.238,0.002253229
881.309,0.002212014
879.381,0.002201113
877.452,0.00221805
875.524,0.002240687
873.595,0.00224904
871.667,0.002260931
869.739,0.002319457
867.81,0.002434526
865.882,0.002553324
863.953,0.002616056
862.025,0.002620327
860.096,0.002612983
858.168,0.002623374
856.239,0.00262952
854.311,0.002614962
852.382,0.002593191
850.454,0.002557777
848.525,0.002502344
846.597,0.002468551
844.668,0.00246816
842.74,0.00245176
840.812,0.002405294
838.883,0.002379525
836.955,0.002415237
835.026,0.002459309
833.098,0.002420392
831.169,0.00231852
829.241,0.00223949
827.312,0.002201945
825.384,0.002202596
823.455,0.002239204
821.527,0.002261868
819.598,0.002261087
817.67,0.00226879
815.741,0.002279771
813.813,0.002291377
811.885,0.002297622
809.956,0.002288827
808.028,0.002276388
806.099,0.002257835
804.171,0.002231763
802.242,0.002210583
800.314,0.002188651
798.385,0.002149601
796.457,0.002103454
794.528,0.002077521
792.6,0.002109567
790.671,0.002185945
788.743,0.002209621
786.814,0.002172989
784.886,0.002166173
782.958,0.002210089
781.029,0.002263091
779.101,0.002294474
777.172,0.002332313
775.244,0.002396886
773.315,0.002475163
771.387,0.002581916
769.458,0.002688929
767.53,0.002740947
765.601,0.002738316
763.673,0.002734643
761.744,0.002799928
759.816,0.002858943
757.887,0.00277622
755.959,0.002666138
754.031,0.002694841
752.102,0.002786302
750.174,0.002854148
748.245,0.002894564
746.317,0.002868245
744.388,0.002822204
742.46,0.002845081
740.531,0.002888727
738.603,0.002884427
736.674,0.002859829
734.746,0.002825852
732.817,0.002749179
730.889,0.002698983
728.96,0.002740582
727.032,0.002799824
725.104,0.00280209
723.175,0.0026658
721.247,0.002442596
719.318,0.002426327
717.39,0.002626213
715.461,0.002767675
713.533,0.002823663
711.604,0.002880545
709.676,0.00298148
707.747,0.003174685
705.819,0.003345203
703.89,0.003281584
701.962,0.002995789
700.033,0.002722478
698.105,0.002580692
696.177,0.002451395
694.248,0.002193386
692.32,0.001821683
690.391,0.001367818
688.463,0.000928279
686.534,0.000840061
684.606,0.001048144
682.677,0.001086472
680.749,0.000825563
678.82,0.000526011
676.892,0.000655565
674.963,0.001253939
673.035,0.001358963
671.106,-0.00078803
669.178,-0.004965069
667.25,-0.005491273
665.321,-0.000865902
663.393,0.002283908
661.464,0.002477168
659.536,0.001886701
657.607,0.001464454
655.679,0.001078713
653.75,0.000945115
651.822,0.0012096
649.893,0.00126531
647.965,0.001064466
646.036,0.001193895
644.108,0.001625649
642.179,0.002374996
640.251,0.003590403
638.323,0.004404495
636.394,0.004178097
634.466,0.004475079
632.537,0.006107805
630.609,0.007263905
628.68,0.007129576
626.752,0.006513098
624.823,0.006178667
622.895,0.006394499
620.966,0.006167429
619.038,0.005551502
617.109,0.006653072
615.181,0.009129545
613.252,0.01069287
611.324,0.01111003
609.396,0.01068464
607.467,0.008954944
605.539,0.006657751
603.61,0.005009448
601.682,0.004884007
599.753,0.006952174
597.825,0.01016479
595.896,0.01271873
593.968,0.01365454
592.039,0.0134665
590.111,0.01407603
588.182,0.01600249
586.254,0.01764296
584.325,0.01619666
582.397,0.01284928
580.469,0.01408563
578.54,0.01770162
576.612,0.01609341
574.683,0.01228583
572.755,0.01320872
570.826,0.01910631
568.898,0.02364982
566.969,0.02209118
565.041,0.02054411
563.112,0.02445919
561.184,0.02706793
559.255,0.02581272
557.327,0.02576644
555.398,0.02375706
553.47,0.01883233
551.542,0.01828514
549.613,0.02073953
547.685,0.02098951
545.756,0.02062312
543.828,0.02185001
541.899,0.02337164
539.971,0.02324993
538.042,0.02254444
536.114,0.02331551
534.185,0.02559523
532.257,0.02705071
530.328,0.02648274
528.4,0.02629767
526.471,0.02581635
524.543,0.02211757
522.615,0.01684774
520.686,0.01463012
518.758,0.01810534
516.829,0.02422789
514.901,0.02814197
512.972,0.02838829
511.044,0.02531512
509.115,0.02067712
507.187,0.01614244
505.258,0.01245658
503.33,0.0119316
501.401,0.01615303
499.473,0.02302236
497.544,0.02790777
495.616,0.02830018
493.688,0.02584783
491.759,0.02419675
489.831,0.02597783
487.902,0.02886882
485.974,0.02893544
484.045,0.02692902
482.117,0.02527391
480.188,0.0253017
478.26,0.02666307
476.331,0.02622075
474.403,0.0229919
472.474,0.02137356
470.546,0.02383677
468.617,0.02497437
466.689,0.0216441
464.76,0.01830971
462.832,0.0176697
460.904,0.01894969
458.975,0.01948136
457.047,0.01714194
455.118,0.01465041
453.19,0.01485775
451.261,0.01726548
449.333,0.02055269
447.404,0.02207192
445.476,0.02025085
443.547,0.01882543
441.619,0.02080465
439.69,0.02218821
437.762,0.0212898
435.833,0.02195875
433.905,0.02270681
431.977,0.02079813
430.048,0.02015111
428.12,0.02141688
426.191,0.02073861
424.263,0.01987191
422.334,0.02279574
420.406,0.02633485
418.477,0.02542898
416.549,0.02269615
414.62,0.02152929
412.692,0.02046815
410.763,0.01917343
408.835,0.01842364
406.906,0.01817486
404.978,0.01870434
403.05,0.0197427
401.121,0.0202757
399.193,0.0205712
